Time (s),Accel X,Accel Y,Accel Z
1.0728836059570312e-05,-575.0,3632.0,-533.0
0.01566028594970703,-575.0,3598.0,-510.0
0.031171560287475586,-575.0,3598.0,-509.6666666666667
0.04677724838256836,-575.0,3598.0,-500.25
0.062278032302856445,-575.0,3598.0,-500.25
0.07772469520568848,-575.0,3598.0,-500.25
0.09318089485168457,-575.0,3585.8571428571427,-500.25
0.10862135887145996,-575.0,3587.875,-500.25
0.12407660484313965,-575.0,3583.5555555555557,-500.25
0.13956975936889648,-575.0,3592.0,-500.25
0.15507245063781738,-575.0,3588.0,-496.975
0.17051386833190918,-575.0,3590.4,-497.9725
0.1859743595123291,-575.0,3589.6400000000003,-496.86975
0.2014627456665039,-575.0,3588.804,-499.356725
0.21692776679992676,-575.0,3587.8844,-499.26739749999996
0.23235869407653809,-575.0,3586.87284,-499.16913724999995
0.24782562255859375,-575.0,3594.2601240000004,-499.06105097499994
0.2632577419281006,-575.0,3593.4861364,-491.23605097499996
0.2786879539489746,-575.0,3597.93475004,-490.3346560725
0.294219970703125,-575.0,3590.9282250439996,-489.34312167975
0.3096599578857422,-575.0,3590.8210475483997,-488.252433847725
0.3250913619995117,-575.0,3591.1031523032398,-487.3801772324975
0.3405647277832031,-575.0,3591.173467533564,-486.3209449557473
0.35602712631225586,-575.0,3591.32681428692,-485.26606445132194
0.37145304679870605,-575.0,3591.5790957156123,-483.8569983964541
0.38689088821411133,-575.0,3591.9485652871736,-482.3159584860996
0.40239953994750977,-575.0,3592.4561378158905,-480.63064060970953
0.417896032333374,-575.0,3592.2757391974797,-486.4937046706805
0.43337440490722656,-575.0,3592.154699477228,-486.0194700402486
0.44913291931152344,-575.0,3591.576694420951,-490.58600443299855
0.46457886695861816,-575.0,3591.641541358646,-490.7102927083233
0.48049497604370117,-575.0,3591.7235907396707,-488.9850493235509
0.49609971046447754,-575.0,3591.7856345833134,-484.64703160030115
0.511660099029541,-575.0,3591.8468512882887,-484.47964026475654
0.5271258354187012,-575.0,3591.8988549884257,-486.85303381962433
0.5425841808319092,-575.0,3591.930830915707,-484.4673339799789
0.5580196380615234,-575.0,3591.9290574785605,-480.035738131369
0.5734705924987793,-575.0,3591.876349444827,-470.972674070398
0.5889425277709961,-575.0,3591.836410469562,-469.4205710103698
0.6044080257415771,-575.0,3591.8045815687956,-462.7626281114068
0.6198844909667969,-575.0,3591.8273702835795,-459.9802904792476
0.6353461742401123,-575.0,3591.845953176073,-458.8783195271723
0.6508195400238037,-575.0,3591.858189419713,-460.3661514798896
0.6663002967834473,-575.0,3591.865444903354,-457.9380634678484
0.6817610263824463,-575.0,3591.8673042648597,-452.83186981463325
0.6972146034240723,-575.0,3591.864149192503,-452.11505679609655
0.7126693725585938,-575.0,3591.8574810201826,-453.5265624757062
0.728147029876709,-575.0,3591.8503233743454,-459.8792187232768
0.7436091899871826,-575.0,3591.8477207672963,-458.7698731885647
0.7591228485107422,-575.0,3591.8488517970704,-457.70480340638426
0.7745687961578369,-565.7,3591.853278819898,-457.199020935882
0.7900547981262207,-564.77,3591.8558696735295,-456.9208939815454
0.8055086135864258,-563.747,3591.8568613232746,-456.72515142698273
0.8209958076477051,-562.6216999999999,3591.8567285136314,-456.36105142169197
0.8364555835723877,-561.3838699999999,3591.8558568746594,-456.2033502170763
0.8519473075866699,-560.0222569999999,3591.8547121356387,-456.5404982573206
0.8674473762512207,-558.5244826999999,3591.853768429953,-456.98304240344316
0.882927417755127,-556.8769309699999,3591.8533971709303,-457.3286903962168
0.8983879089355469,-555.064624067,3591.853704550588,-457.0736375635108
0.9138467311859131,-553.0710864737,3591.8543029289167,-456.90401400100535
0.9293105602264404,-560.17819512107,3591.8548480421014,-456.8239350604675
0.9447677135467529,-559.626014633177,3591.8550049643222,-456.786426472926
0.9602267742156982,-559.1116160964946,3591.854918493401,-456.77297972206406
0.9756894111633301,-558.648077706144,3591.854724210414,-456.7777625515722
0.9911580085754395,-558.2507154767586,3591.8545237800927,-456.8194336645603
1.0066070556640625,-557.9374000244345,3591.854390470636,-456.88104200930866
1.0220608711242676,-557.7289143268779,3591.8543583041364,-456.91509638450754
1.0375428199768066,-557.6493574895655,3591.8544172915545,-456.90830178261393
1.0530109405517578,-557.7266001415223,3591.854519303616,-456.8662629212537
1.068469524383545,-557.9927977489746,3591.854600778919,-456.845525457028
1.0839064121246338,-558.4849688765019,3591.854630563919,-456.83967660263016
1.0994079113006592,-558.315646252045,3591.8546088161006,-456.8412507568464
1.114891529083252,-558.1846094139319,3591.8545692012785,-456.84673318523846
1.1303558349609375,-558.0919087456756,3591.8545342720668,-456.8541085315559
1.1457877159118652,-558.0362918496287,3591.8545152782317,-456.86174312955427
1.1612746715545654,-558.0148494869159,3591.854514428046,-456.8659740760537
1.1767516136169434,-558.0225944331639,3591.8545268237867,-456.86446728272824
1.1922171115875244,-558.0519624437925,3591.854543675752,-456.85940437255033
1.2076714038848877,-558.0922229392152,3591.8545563141715,-456.85451463154396
1.223130702972412,-558.5195629250629,3591.8545600152274,-456.8533398025729
1.2385985851287842,-556.6202831501654,3591.8545559388576,-456.8541212371274
1.2540762424468994,-556.4338145775318,3591.8545484763517,-456.85556570057713
1.2695362567901611,-556.2456314100805,3591.854542442377,-456.8569971949502
1.2849884033203125,-556.0517336096955,3591.854539766487,-456.85802359592134
1.3004374504089355,-555.8477160960973,3591.8545403159287,-456.85841510235804
1.3159101009368896,-555.6288585207443,3591.8545428196985,-456.85808229963834
1.331392526626587,-555.3902594241271,3591.854545658864,-456.85729312199675
1.3468635082244873,-555.1270259232234,3591.8545475423716,-456.85657570592366
1.3623526096343994,-554.8345322711665,3591.854547929034,-456.85629283926085
1.3778166770935059,-554.1179854982831,3591.85454709052,-456.85647066003264
1.39327073097229,-555.6297840481116,3591.8545457980495,-456.85678374577867
1.4087514877319336,-555.530734137906,3591.854544783968,-456.85704999664375
1.4242393970489502,-555.4404260939435,3591.85454441473,-456.8571984262504
1.439695119857788,-555.3599055623299,3591.854544611965,-456.8572185493805
1.4551403522491455,-555.2907227575932,3591.854545096513,-456.85713804472636
1.470609426498413,-555.235023423743,3591.854545574571,-456.8570103389632
1.486074447631836,-555.1956399140428,3591.8545458500585,-456.8569031428956
1.501532793045044,-555.1761779630343,3591.8545458691783,-456.8568641449856
1.5169894695281982,-555.1810931670154,3591.854545701859,-450.07120657439316
1.5324461460113525,-555.2157492566002,3591.854545479141,-452.28557729046713
1.5479235649108887,-555.325525632432,3591.8545453180027,-453.2999302244639
1.5633785724639893,-555.295099790864,3591.854545269999,-450.414251849886
1.5788283348083496,-555.2715363561598,3591.8545453186016,-444.92854685022155
1.5942671298980713,-555.2546473823814,3591.8545454089885,-438.0428270075966
1.6097445487976074,-555.2441215643865,3591.8545454886917,-436.1613878534182
1.6252467632293701,-555.239461445066,3591.854545527909,-434.09181283428745
1.6407151222229004,-555.2399052471983,3582.8690909704515,-431.81529308381977
1.6561877727508545,-555.2443317805138,3581.9705454824916,-429.31113207791225
1.6716532707214355,-555.2511471622618,3580.982145443823,-433.34224528570337
1.6871023178100586,-555.2581525617863,3579.8949054180184,-428.7764698142737
1.702552080154419,-555.262392892305,3578.6989414119066,-424.95411679570117
1.7180092334747314,-555.2560796182922,3577.3833810212977,-424.6495284752712
1.7334821224212646,-555.2521776010351,3575.936264596427,-426.9144813227984
1.7489409446716309,-555.2502417255226,3578.650810064567,-430.8059294550782
1.7644219398498535,-555.2498011598368,3577.330436530125,-430.08223969982646
1.7798948287963867,-555.2503691193818,3575.8780256342675,-429.4743248844672
1.7953479290008545,-555.2514598868134,3583.2658281976946,-429.01257608948515
1.8108046054840088,-555.2526153507749,3583.30550192042,-428.73230439005164
1.826305866241455,-555.2534437078011,3583.4389975642125,-428.67442162126565
1.842010498046875,-555.253673362355,3583.6846827762515,-428.20763925482186
1.8575127124786377,-555.2532254424118,3584.0636605120744,-428.15075619887665
1.8729736804962158,-555.2523086974224,3584.600132422091,-428.4704201391943
1.888451337814331,-555.2519316053356,3585.32180756217,-428.8525093055865
1.9039039611816406,-555.2519070057656,3581.9539883183875,-429.0463121038653
1.9193615913391113,-555.2520735337899,3582.2843061437698,-428.870350368744
1.9348363876342773,-555.2523007711853,3582.7796931051334,-428.74916143563576
1.9503142833709717,-555.2524939363655,3583.4698598522205,-428.6766450907526
1.9657907485961914,-555.2525973413207,3583.490263017673,-428.64305199087937
1.981304407119751,-555.2525955403753,3583.508739127398,-428.63412675096214
1.9967615604400635,-555.2525107236327,3583.5157132837167,-428.6300972639318
2.01241397857666,-555.2523944597604,3583.4988163344633,-428.6723430648429
2.0279040336608887,-555.2523113614953,3583.442331916702,-428.7245017514395
2.043386936187744,-555.2523116279027,3583.3265518661633,-428.74990991266407
2.058835744857788,-555.2523496301594,3583.1270262965636,-428.7396499733718
2.0742907524108887,-555.2523938925987,3583.2443300943805,-428.7089837603224
2.0897328853607178,-555.2524259284796,3587.415899480003,-428.6928470994802
2.1051807403564453,-555.2524384442089,3587.8795201174908,-428.68721566586476
2.120637893676758,-555.2524328949933,3588.320486144017,-428.6882727233759
2.1360909938812256,-555.2524164503604,3588.803508456652,-428.69279479662555
2.151563882827759,-555.2523985413591,3589.3329853895766,-428.69866160119193
2.167062282562256,-555.2523873231318,3589.7814140612054,-428.7055180349179
2.182523250579834,-555.252386609469,3590.40967383388,-428.70883553192533
2.1979713439941406,-555.2523941342663,3591.106408025598,-428.707268909974
2.213426113128662,-555.2524023849026,3591.884393641541,-428.7030048097049
2.228877305984497,-555.252407660377,3592.7601303760393,-428.69934029333837
2.244323968887329,-555.2524090371547,3589.636143413643,-428.6983759466399
2.2597897052764893,-555.2524073480223,3589.8581678070063,-428.6989288313559
2.2752575874328613,-555.2524042384036,3590.056032575958,-428.70010014790495
2.2907044887542725,-555.2524013727447,3590.229587219152,-428.70128289035785
2.3061468601226807,-555.2523998649831,3590.3721950954023,-428.702131699731
2.3215951919555664,-555.2523999973455,3590.6094146049427,-428.702478709585
2.3370532989501953,-555.2524012647668,3590.692214659316,-428.7021747770517
2.3525242805480957,-555.2524027302967,3590.72046874186,-428.7015087015644
2.367995023727417,-555.2524035898998,3590.6818748134856,-428.7009326807235
2.383451223373413,-555.2524037103994,3590.5616229306806,-428.7007254678253
2.3989410400390625,-555.2524033154016,3590.341772186145,-428.70086398527394
2.41443133354187,-555.2524027432263,3590.412335063395,-428.70111278913737
2.429899215698242,-555.2524022827467,3590.467751789033,-428.7013311849154
2.445356607437134,-555.252402087181,3590.508923710341,-428.7014542886165
2.460853338241577,-555.2524021586247,3590.5368573594596,-428.70147142844235
2.4763379096984863,-555.2524023879889,3590.553323585866,-428.7014054013136
2.4917972087860107,-555.2524026270532,3590.5477144839583,-428.7012980704864
2.507254123687744,-555.2524027632818,3590.533264466423,-428.70121039982985
2.522714614868164,-555.2524027665803,3590.514544038879,-428.7011805696564
2.5381720066070557,-555.2524026842483,3590.497810961418,-428.70120535854966
2.5536248683929443,-555.2524025816333,3590.4914297644923,-428.7012533476221
2.569096565246582,-555.2524025082564,3590.506395522327,-428.70129228385696
2.5845470428466797,-555.2524024847595,3590.51580156822,-428.70131023332897
2.5999984741210938,-555.2524025049609,3590.520606546139,-428.7013081381703
2.615461587905884,-555.2524025467388,3590.521774829719,-428.7012935231257
2.63095760345459,-555.2524025855503,3590.5202665767442,-428.70127573259396
2.64640736579895,-555.2524026053063,3590.516960875832,-428.701262765722
2.6618618965148926,-555.2524026031316,3590.513885515019,-428.7012592352456
2.677314519882202,-555.2524025871165,3590.511947619879,-428.7012641187871
2.692769765853882,-555.2524025691702,3590.511687977979,-428.7012724737002
2.7082161903381348,-555.2524025576623,3590.5130756796343,-428.7012791852153
2.7236552238464355,-555.2524025552652,3590.5152402711487,-428.7012817689746
2.7391176223754883,-555.2524025599662,3590.516124746031,-428.7012807174864
2.7545735836029053,-555.2524025674868,3590.516157063813,-428.7012777659021
2.770021438598633,-555.2524025737395,3590.51571211558,-428.70127472867534
2.785475015640259,-555.2524025764394,3590.515105844166,-428.7012728492303
2.8009209632873535,-555.2524025755284,3590.514589770908,-428.7012725608939
2.816364288330078,-555.2524025725505,3590.514352660416,-428.70127354041114
2.8318123817443848,-555.2524025694925,3590.5143993749552,-428.7012749709276
2.847252130508423,-555.2524025677301,3590.514644550463,-428.7012760561417
2.8627283573150635,-555.252402567586,3590.5149402077113,-428.70127641438586
2.8781840801239014,-555.2524025685784,3590.5151266605185,-428.70127613730284
2.893620014190674,-555.2524025699097,3590.5151152994563,-428.7012755741357
2.9090638160705566,-555.2524025709041,3590.515014354799,-428.70127505980065
2.9244961738586426,-555.2524025712459,3590.5149000838965,-428.70127478919056
2.939950466156006,-555.2524025709965,3590.514818880728,-428.70127479524206
2.9554381370544434,-555.2524025704522,3590.5147901843848,-428.7012749898432
2.970919609069824,-555.2524025699446,3590.5148102257326,-428.7012752327381
2.9863789081573486,-555.252402569684,3590.514855982264,-428.7012754019708
3.001845598220825,-555.2524025697032,3590.514901642996,-428.7012754450751
3.017327308654785,-555.2524025699006,3590.514927352249,-428.70127538396844
3.0327939987182617,-555.252402570132,3590.514926066703,-428.7012752809267
3.048253059387207,-555.2524025702874,3590.514906007321,-428.70127519528916
3.0637025833129883,-555.2524025703251,3590.514885078107,-428.7012751574045
3.079157590866089,-555.2524025702671,3590.5148721504374,-428.7012751671649
3.094622850418091,-555.2524025701692,3590.5148693570927,-428.70127520496237
3.110067129135132,-555.2524025700866,3590.5148744047283,-428.70127524593437
3.1255109310150146,-555.25240257005,3590.514882826763,-428.70127527154347
3.140956401824951,-555.2524025700607,3590.514890086866,-428.701275275424
3.1564104557037354,-555.2524025700981,3590.514893497326,-428.7012752627694
3.171879768371582,-555.2524025701376,3590.514892682759,-428.70127524453875
3.1873388290405273,-555.2524025701613,3590.5148892158104,-428.70127523059574
3.2028188705444336,-555.2524025701643,3590.514885530721,-428.70127522556265
3.218273401260376,-555.2524025701521,3590.5148834830616,-428.70127522859
3.233722448348999,-555.2524025701347,3590.5148833235567,-428.70127523570864
3.2491700649261475,-555.2524025701216,3590.5148844408686,-428.70127524256293
3.2646305561065674,-555.2524025701167,3590.514885949246,-428.701275246323
3.2800729274749756,-555.2524025701198,3590.514887103698,-428.7012752463619
3.2955684661865234,-555.2524025701267,3590.514887531391,-428.7012752438437
3.3110485076904297,-555.2524025701333,3590.5148872758446,-428.7012752406857
3.3265061378479004,-555.2524025701368,3590.514886653696,-428.7012752384773
3.3419530391693115,-555.2524025701367,3590.5148860507893,-428.70127523787113
3.35740065574646,-555.2524025701343,3590.5148857342874,-428.7012752385987
3.3728604316711426,-555.2524025701313,3590.5148857546437,-428.7012752399023
3.3883278369903564,-555.2524025701292,3590.5148859818014,-428.70127524103356
3.403780937194824,-555.2524025701287,3590.5148862476262,-428.70127524156595
3.419239044189453,-555.2524025701293,3590.5148864283024,-428.7012752414663
3.4346847534179688,-555.2524025701307,3590.5148864762077,-428.70127524098064
3.4501287937164307,-555.2524025701316,3590.5148864134594,-428.70127524044256
3.4656217098236084,-555.2524025701321,3590.5148863016657,-428.7012752401024
3.4810774326324463,-555.2524025701321,3590.514886204248,-428.701275240044
3.4967103004455566,-555.2524025701316,3590.5148861593034,-428.70127524020074
3.5121841430664062,-555.252402570131,3590.514886170155,-428.70127524043374
3.527658700942993,-555.2524025701307,3590.5148862137416,-428.7012752406172
3.5431277751922607,-555.2524025701307,3590.5148862596516,-428.7012752406887
3.558580160140991,-555.2524025701308,3590.514886287436,-428.7012752406543
3.574037551879883,-555.252402570131,3590.5148862914175,-428.70127524056306
3.589505910873413,-555.2524025701312,3590.514886277729,-428.70127524047274
3.6049764156341553,-555.2524025701313,3590.5148862578812,-428.701275240422
3.620424270629883,-555.2524025701313,3590.514886242323,-428.7012752404198
3.635885000228882,-555.2524025701312,3590.5148862363885,-428.70127524045165
3.6513583660125732,-555.2524025701312,3590.5148862396027,-428.7012752404924
3.6668307781219482,-555.2524025701312,3590.514886247633,-428.7012752405215
3.68230938911438,-555.2524025701312,3590.5148862553806,-428.7012752405303
3.6977617740631104,-555.2524025701312,3590.5148862595443,-428.7012752405217
3.713207244873047,-555.2524025701312,3590.5148862595333,-428.70127524050497
3.72865629196167,-555.2524025701313,3590.514886256743,-428.70127524049
3.7441141605377197,-555.2524025701313,3590.514886253276,-428.70127524048274
3.759584665298462,-555.2524025701313,3590.514886250831,-428.70127524048365
3.775082588195801,-555.2524025701313,3590.5148862501255,-428.70127524048985
3.7905566692352295,-555.2524025701313,3590.5148862509063,-428.7012752404968
3.806034564971924,-555.2524025701313,3590.514886252358,-428.70127524050133
3.821491241455078,-555.2524025701313,3590.5148862536334,-428.70127524050224
3.836947202682495,-555.2524025701313,3590.5148862542337,-428.7012752405003
3.8523998260498047,-555.2524025701313,3590.5148862541187,-428.7012752404973
3.8678576946258545,-555.2524025701313,3590.5148862535752,-428.70127524049485
3.8833048343658447,-555.2524025701313,3590.5148862529795,-428.7012752404938
3.8987479209899902,-555.2524025701313,3590.514886252604,-428.7012752404942
3.9142229557037354,-555.2524025701313,3590.514886252536,-428.7012752404954
3.9297072887420654,-555.2524025701313,3591.9633976274536,-428.70127524049667
3.94515061378479,-555.2524025701313,3588.511909002441,-428.7012752404973
3.9608044624328613,-555.2524025701313,3588.3116112775942,-428.7012752404974
3.976344108581543,-555.2524025701313,3588.091283780118,-428.70127524049695
3.991816759109497,-555.2524025701313,3587.8489235327665,-428.4311477164467
4.0072760581970215,-555.2524025701313,3587.58232726062,-423.6610201923967
4.022747039794922,-555.2524025701313,3587.2890713612696,-423.1569946875867
4.038219213485718,-555.2524025701313,3586.9664898720393,-422.60256663229586
4.053712844848633,-555.2524025701313,3586.611650233945,-421.99269577147606
4.069183588027954,-555.2524025701313,3586.2213266320796,-421.3218378245741
4.084637641906738,-555.2524025701313,3584.343459295288,-420.58389408298206
4.100095510482788,-555.2524025701313,3587.1778052248164,-419.7721559672306
4.115551233291626,-555.2524025701313,3587.044394847054,-418.87924403990394
4.131041526794434,-555.2524025701313,3586.9176732039996,-412.7091165158542
4.146507978439331,-555.2524025701313,3586.800312146387,-411.38002816743966
4.161980867385864,-555.2524025701313,3586.69545100775,-414.4180309841836
4.177423477172852,-555.2524025701313,3586.6067633824628,-413.49373206336224
4.192873001098633,-555.2524025701313,3586.538532584582,-412.52740580093985
4.208329677581787,-555.2524025701313,3586.495736855836,-411.5198897178042
4.223782300949097,-555.2524025701313,3586.484145518026,-410.472609112437
4.239243745803833,-561.3271623131182,3586.5104274066202,-409.3876862412234
4.254711151123047,-561.9346382874168,3586.727124217753,-408.26806545704756
4.270160675048828,-562.6028618591455,3586.682056117047,-407.1176564060292
4.2856245040893555,-563.3379077880468,3586.6458222440465,-411.12942204663216
4.301077365875244,-564.1464583098383,3586.6186371480508,-410.97145259970995
4.316525220870972,-565.0358638838092,3586.600469648217,-410.93059504293694
4.33198618888855,-566.0142100151768,3586.590971512264,-410.58185144881224
4.347458362579346,-567.0903907596814,3586.5893923252434,-410.2906633873573
4.362947225570679,-568.2741895786364,3586.59447829931,-410.066989145999
4.378404855728149,-569.5763682794869,3586.604352443658,-409.9216990888185
4.393869876861572,-564.9340051074356,3586.6163731362212,-409.86660808645667
4.409325122833252,-565.2946893868674,3586.6269677091814,-409.9145002709799
4.424782037734985,-565.6306944968125,3586.6169520583244,-410.07914375237317
4.4402360916137695,-565.9334777605792,3586.6104416524513,-410.3752924870076
4.455694198608398,-566.1930347578324,3586.6069035932924,-410.2998795310451
4.471142530441284,-566.3976924026317,3586.6057302378163,-410.2327222241787
4.486626386642456,-566.5338752545141,3586.606256296776,-410.16293494230274
4.502082347869873,-566.5858417784477,3586.6077847752276,-410.12104329165186
4.51753306388855,-566.5353868803243,3586.6096240202255,-410.1040812820814
4.53298020362854,-566.361506610493,3586.6111385923177,-410.1077904956895
4.548462629318237,-566.0400204435937,3586.611817207183,-410.1263996363767
4.563918828964233,-566.1506219772095,3586.6113616142793,-410.1523787913687
4.579378128051758,-566.2362152362437,3586.609801004789,-410.17616664340756
4.594825744628906,-566.296767310187,3586.6090858994357,-410.185868932511
4.610280513763428,-566.3330962651477,3586.6089503241337,-410.1669265770614
4.625730037689209,-566.3471024158792,3586.609154997219,-410.153631281663
4.641190767288208,-566.342043417204,3586.609497473159,-410.1457221874114
4.656654357910156,-566.322860233473,3586.6098215907973,-410.1440009119222
4.672115325927734,-566.2965620789755,3586.610025272354,-410.1462966739493
4.687582015991211,-566.2726795988406,3586.6100653975673,-410.1505182131361
4.703059673309326,-566.2637968976754,3586.6099580780924,-410.1547909848808
4.718530178070068,-566.2861745430835,3586.609772165183,-410.15763011973115
4.733999252319336,-566.2997297996709,3586.609613220274,-410.1581552525674
4.749446392059326,-566.3060812560136,3586.6095944418216,-410.1563541134833
4.764891862869263,-566.3070126505963,3586.60964529606,-410.1534026315805
4.780333518981934,-566.3044042891412,3586.6097147932533,-410.1520502370325
4.795795202255249,-566.3001344764674,3586.6097707728563,-410.15189213256946
4.811248779296875,-566.2959435823938,3586.609798102826,-410.15250912708524
4.826729774475098,-566.2932519172858,3586.6097957540287,-410.15335994860163
4.842189311981201,-566.2929209011169,3586.609772802196,-410.1540662760668
4.857657432556152,-566.2949450313445,3586.609743542659,-410.15442108235993
4.873119831085205,-566.2980598447114,3586.6097220891156,-410.1543840921078
4.88857626914978,-566.2992483748742,3586.609717081509,-410.1540594893454
4.904047250747681,-566.2992002323945,3586.609727467633,-410.15364991302323
4.919590711593628,-566.2985121300326,3586.6097407702136,-410.1533794929772
4.937881231307983,-566.2976620779762,3586.6097503176293,-410.1533771791169
4.9566969871521,-566.2969878568597,3586.609753870067,-410.15350987332533
4.975438833236694,-566.2966731948989,3586.609752179788,-410.153671647401
4.994160175323486,-566.2967461561494,3586.6097475874835,-410.15378789943253
5.01289701461792,-566.2970955800358,3586.609742770829,-410.15383069451565
5.031654596328735,-566.2975130479276,3586.609739767693,-410.1538071363605
5.050438642501831,-566.2977698495858,3586.609739390196,-410.1537457417606
5.069183111190796,-566.2977408500735,3586.6097411203045,-410.15368190672586
5.087909698486328,-566.2975900975933,3586.609743524184,-410.1536441484639
5.10665225982666,-566.2974290841132,3586.6097451298388,-410.15364357200804
5.1254355907440186,-566.2973207795213,3586.609745565801,-410.15366997991106
5.144179821014404,-566.2972866496759,3586.6097450906177,-410.1536992599905
5.162983655929565,-566.2973165289575,3586.609744212673,-410.15371819865703
5.18171501159668,-566.2973808623634,3586.6097434159615,-410.1537228537826
5.200441837310791,-566.2974443329847,3586.60974299881,-410.1537163492176
5.21952748298645,-566.2974792082797,3586.6097430216078,-410.15370491468775
5.238416433334351,-566.2974758243149,3586.6097433469995,-410.15369469252056
5.25716233253479,-566.2974464217878,3586.6097437426797,-410.15368958759643
5.275900363922119,-566.2974169789592,3586.609744004917,-410.1536903556836
5.29461669921875,-566.2973996670959,3586.6097440529907,-410.1536949764056
5.313325881958008,-566.297396725394,3586.6097439453056,-410.15370011684524
5.332068204879761,-566.2974043199813,3586.6097437832564,-410.15370313053864
5.350811719894409,-566.2974160870118,3586.6097436525197,-410.1537035175935
5.369535207748413,-566.2974260428172,3586.6097435965044,-410.15370204948715
5.388245105743408,-566.2974305608626,3586.6097436145587,-410.1536999690576
5.407005548477173,-566.2974291836504,3586.6097436761347,-410.1536983310416
5.425743818283081,-566.2974241811875,3586.609743741587,-410.1536976726769
5.444491624832153,-566.2974190168745,3586.609743781045,-410.15369797069263
5.463269472122192,-566.2974162763834,3586.6097437848816,-410.15369880900226
5.482027530670166,-566.2974162061258,3586.6097437628787,-410.1536996543341
5.5007805824279785,-566.2974178600288,3586.609743733867,-410.15370012212696
5.519531011581421,-566.2974199734923,3586.6097437127232,-410.1537001226551
5.538288116455078,-566.2974215388435,3586.6097437056696,-410.1536998218668
5.5570268630981445,-566.2974220840266,3586.6097437109847,-410.1536994522941
5.575746774673462,-566.2974216881477,3586.609743722433,-410.15369919257483
5.594485521316528,-566.2974208008761,3586.609743733221,-410.15369911492644
5.613224506378174,-566.2974199625986,3586.60974373893,-410.153699193315
5.631950378417969,-566.2974195407398,3586.6097437386634,-410.15369934537887
5.650713205337524,-566.2974195931263,3586.609743734425,-410.1536994828474
5.669448375701904,-566.2974199248006,3586.6097437293793,-410.15369955023186
5.6881585121154785,-566.297420296668,3586.6097437260296,-410.15369953982173
5.706888437271118,-566.2974205403318,3586.6097437252456,-410.1536994815912
5.725595712661743,-566.297420597016,3586.609743726498,-410.15369941748486
5.744628429412842,-566.2974205028332,3586.609743728581,-410.1536993770466
5.763453960418701,-566.2974203447138,3586.6097437303406,-410.1536993695219
5.782197713851929,-566.2974202103703,3586.6097437311314,-410.1536993872166
5.800909519195557,-566.2974201513198,3586.6097437309227,-410.1536994144456
5.819645643234253,-566.297420170192,3586.6097437301223,-410.1536994365586
5.838353395462036,-566.2974202331371,3586.609743729268,-410.1536994456766
5.857129812240601,-566.2974202971383,3586.609743728752,-410.15369944195953
5.875838279724121,-566.297420334372,3586.609743728689,-410.1536994311324
5.894542455673218,-566.2974203381424,3586.609743728955,-410.1536994202635
5.9132702350616455,-566.2974203179235,3586.609743729326,-410.15369941413064
5.932004690170288,-566.2974202900143,3595.0487693566756,-410.15369941379515
5.950716972351074,-566.2974202687324,3595.892671919485,-410.15369941747
5.969452857971191,-566.2974202611342,3596.8209647384,-410.1536994222648
5.988157510757446,-566.2974202662106,3597.842086839127,-410.1536994257696
6.006878614425659,-566.2974202776998,3598.965321149947,-410.15369942690205
6.025585412979126,-566.2974202884504,3600.2008788919293,-410.15369942593634
6.044514894485474,-566.2974202939818,3601.5599924081957,-410.1536994239624
6.063321828842163,-566.297420293666,3603.0550172761405,-410.1536994221627
6.08204984664917,-566.2974202895955,3604.699544630885,-410.15369942126574
6.100809812545776,-566.297420284741,3606.508524721078,-410.15369942136596
6.119664907455444,-566.2974202814227,3600.0593771931867,-410.15369942208946
6.138439655303955,-566.2974202805635,3600.5604379768374,-410.1536994229189
6.157505750656128,-566.2974202817466,3601.027214582573,-410.15369942346376
6.176234245300293,-566.2974202838078,3601.4478395669894,-410.15369942358376
6.1953370571136475,-566.2974202855676,3601.8084148397766,-410.1536994233652
6.214087009429932,-566.2974202863542,3602.092724208759,-410.1536994230115
6.232893466949463,-566.2974202861446,3602.2819087404414,-410.153699422719
6.251697301864624,-566.2974202853609,3602.354100373667,-410.15369942259457
6.270491123199463,-566.2974202845305,3602.28400868342,-410.15369942263777
6.289271593093872,-566.2974202840239,3602.0424550886733,-410.15369942277505
6.3083062171936035,-566.2974202839523,3601.5958481254324,-410.1536994229159
6.327089548110962,-566.2974202842053,3601.749495218657,-410.1536994229985
6.345889091491699,-566.2974202845694,3601.868400942839,-410.1536994230065
6.364731788635254,-566.2974202848516,3601.9525195788656,-410.15369942296076
6.38352108001709,-566.2974202849562,3602.002987580053,-410.15369942289846
6.402453899383545,-566.297420284895,3602.0224448540807,-410.1536994228518
6.421493291854858,-566.297420284749,3602.0154169186135,-410.15369942283587
6.440303802490234,-566.2974202846093,3601.98876773643,-410.1536994228476
6.459175109863281,-559.5676782560733,3601.952234472706,-410.1536994228728
6.477964878082275,-558.8947040532275,3601.9190570516353,-410.15369942289635
6.496742010116577,-558.154432430148,3601.9067172479313,-410.15369942290846
6.5155181884765625,-557.3401336447675,3601.9378041601813,-410.1536994229077
6.534608602523804,-556.4444049808237,3601.956635054333,-410.15369942289874
6.5533366203308105,-555.4591034504491,3601.965458465483,-410.1536994228879
6.572127819061279,-554.3752717670088,3601.9667523541443,-410.15369942288055
6.590965986251831,-553.1830569152141,3601.963128831553,-410.1536994228788
6.609714984893799,-551.871620578246,3601.9571972293006,-410.15369942288146
6.628460884094238,-550.4290406075958,3601.9513752603693,-410.153699422886
6.647266864776611,-555.5719446683554,3601.9476360127637,-410.1536994228898
6.666027069091797,-555.1723713095837,3601.94717616677,-410.1536994228915
6.684859991073608,-554.8001380352191,3601.9499880782837,-410.15369942289107
6.703594207763672,-554.4647085957263,3601.954315161319,-410.15369942288936
6.722315788269043,-554.1771660908222,3601.9559662614324,-410.15369942288754
6.741062164306641,-553.9504422018219,3601.955899382142,-410.15369942288635
6.7597949504852295,-553.7995760769593,3601.9549434738083,-410.15369942288623
6.7785515785217285,-553.7420065079543,3601.953762585774,-410.1536994228868
6.797282695770264,-553.7979014672284,3601.9528259611966,-410.1536994228876
6.815994739532471,-553.9905295561266,3601.9523888343856,-410.1536994228883
6.834717273712158,-554.3466784509797,3601.9524901917875,-410.1536994228885
6.853482961654663,-554.2241518292421,3601.9529756096904,-410.15369942288834
6.872212171554565,-554.129329881208,3601.953555553982,-410.153699422888
6.890990495681763,-554.0622490658068,3601.9539123015516,-410.1536994228877
6.909730672836304,-554.0220031128149,3601.9538720155747,-410.15369942288754
6.928438901901245,-554.0064868150142,3601.9536625909886,-410.15369942288754
6.947168827056885,-554.0120912763334,3601.9534389118735,-410.1536994228877
6.96588134765625,-554.0333427962707,3601.95328845568,-410.1536994228878
6.984651327133179,-554.0624764251023,3601.953241042672,-410.153699422888
7.003446340560913,-554.0889339208899,3601.953282550819,-410.153699422888
7.022188425064087,-554.0987743573662,3601.9533719224623,-410.1536994228879
7.040923118591309,-554.0739839480049,3601.9534600955294,-410.1536994228879
7.059636831283569,-554.0589671598811,3601.953508544113,-410.1536994228878
7.078374862670898,-554.0519308877484,3601.9535038431263,-410.1536994228878
7.097134351730347,-554.0508990699425,3595.858112612971,-410.1536994228878
7.115855932235718,-554.0537886656554,3595.248536672711,-410.1536994228878
7.134569883346558,-554.0585188507196,3594.578024080883,-410.1536994228878
7.153324127197266,-554.063161608158,3593.482680189696,-410.1536994228878
7.172050714492798,-554.0661434893469,3600.7873513441277,-410.1536994228878
7.190800428390503,-554.0665101957713,3600.670762374274,-410.1536994228878
7.209526062011719,-554.0642678232596,3596.975434119192,-410.1536994228878
7.228218078613281,-554.0608171698489,3596.477640338865,-410.1536994228878
7.2472546100616455,-554.0595004920332,3595.930058363198,-410.1536994228878
7.266056060791016,-554.0595538252485,3595.327713345106,-410.1536994228878
7.284786224365234,-554.0603161189983,3600.7604846796175,-410.1536994228878
7.303528308868408,-554.061257823904,3601.250721886282,-410.1536994228878
7.322229623794556,-554.0620047397289,3601.8509404076385,-410.1536994228878
7.340928792953491,-554.0623533286298,3602.9360344484026,-410.1536994228878
7.359663486480713,-554.062272500677,3595.729637893243,-410.1536994228878
7.378375053405762,-554.06188540181,3595.223866548154,-410.1536994228878
7.397130250930786,-554.0614229224138,3602.623866548155,-410.1536994228878
7.415842533111572,-554.0611384323292,3603.188709791051,-410.1536994228878
7.4345409870147705,-554.0611705585773,3603.8598167362697,-410.1536994228878
7.453248977661133,-554.0613375652317,3604.652792573577,-410.1536994228878
7.471998929977417,-554.0615159392299,3605.5853004964238,-410.1536994228878
7.490748882293701,-554.0616359212532,3606.0677820781043,-410.1536994228878
7.5095038414001465,-554.0616737309881,3606.549488097286,-410.1536994228878
7.528229713439941,-554.0616406301141,3607.019342866251,-410.1536994228878
7.547046422958374,-554.0615693602625,3607.4276737080363,-410.1536994228878
7.56578803062439,-554.061499046221,3608.5974772895147,-410.1536994228878
7.584537982940674,-554.061460410662,3605.557225018467,-409.538329480599
7.603289604187012,-554.0614641594868,3605.850560865498,-413.2229595383102
7.622027635574341,-554.0614967322027,3606.1167459729427,-413.5298855498525
7.640792369842529,-554.0615293495651,3606.34243889661,-413.8675041625489
7.659532308578491,-554.0615485279984,3606.511403528914,-414.2388846365151
7.678258895874023,-554.0615517868754,3602.252873479271,-414.64740315787776
7.69700813293457,-554.0615433734376,3601.871382619388,-413.13203321558905
7.715728759765625,-551.6553760003387,3601.4035720715983,-413.42986659485916
7.734704494476318,-551.4147495373613,3600.8419949921326,-413.7574833120563
7.753479242324829,-551.1500675550712,3609.599227621329,-420.4421133697675
7.772206783294678,-550.8589244059563,3609.69940265451,-422.0863247067443
7.7909040451049805,-550.5386708054857,3610.1136204181144,-419.5949571774187
7.80962872505188,-550.1863914700855,3610.5399263733766,-420.2321569413295
7.828351259231567,-549.7988809438737,3610.9822444134197,-420.9023840804772
7.84709906578064,-549.3726161033045,3611.4462249651006,-421.60587207227
7.865795850753784,-548.9037228608353,3616.290847461611,-422.3425708158455
7.884514570236206,-548.3879399682312,3617.694644859845,-425.07682789743
7.90330171585083,-550.2267339650543,3619.27697108389,-426.2713073656141
7.922030210494995,-550.0838697615259,3621.06431098512,-427.5554514426896
7.940738677978516,-549.9507817839424,3613.670742083632,-422.61099658695866
7.9594504833221436,-549.8308532068295,3614.077893529862,-422.8278849086777
7.978172540664673,-549.7280460869167,3614.5157426173973,-422.9020409288711
7.996892690658569,-549.64698361506,3614.9559548373254,-423.2327493040163
8.015657663345337,-549.5930428295574,3615.3975576837197,-423.532808540285
8.034367799758911,-549.5724590181256,3615.8390890107503,-423.79585098626575
8.05309510231018,-549.5924433096077,3616.2783754153147,-424.0148488776654
8.071835994720459,-549.6613153544852,3616.2771282106855,-424.1820766838473
8.090590715408325,-549.7886528931106,3616.1353765457693,-424.092601562489
8.109365701675415,-549.744844785916,3615.821217091957,-423.8747309821765
8.128104448318481,-549.7109422883551,3615.2969077026405,-423.5066589361253
8.146832466125488,-549.6869583387963,3615.459524264542,-423.5962251710419
8.165558576583862,-549.672568851993,3615.5976873380096,-423.6730591972784
8.184306144714355,-549.6670211285007,3615.7058818100713,-423.7501610241191
8.203092098236084,-549.6690248798448,3615.780874507346,-423.8019021961294
8.221859693527222,-549.6766230848735,3615.8192061897084,-423.8288115617138
8.240597009658813,-549.6870394915483,3615.817217907604,-423.83210761925864
8.259340047836304,-549.6964991097424,3615.7711021568334,-423.813833493418
8.278058052062988,-549.7000174852681,3615.7204995514485,-423.77700917437505
8.296795845031738,-549.6911539444839,3615.6790118520157,-423.74544993556367
8.315543174743652,-549.6857848603406,3615.664791328022,-423.73252183090233
8.334262132644653,-549.6832691175391,3615.7015796905603,-423.75510812038
8.352974891662598,-549.6829001954135,3615.7257852331613,-423.77099641531385
8.371683359146118,-549.6839333297554,3615.738595022677,-423.7807901371174
8.390429019927979,-549.6856245498809,3615.7418663439375,-423.7838530484172
8.409157514572144,-549.6872845168846,3615.7379655275968,-423.782048133646
8.42789888381958,-549.6883506600857,3615.7298414613856,-423.77737179083925
8.446629285812378,-549.6884817769394,3615.721103816764,-423.7718982079973
8.465349912643433,-549.6876800436592,3615.7161039827574,-423.7677046794553
8.4841468334198,-549.6864462994984,3615.715664425888,-423.7667742299633
8.50290036201477,-549.6859755349997,3615.719329683275,-423.7689066594033
8.52167296409607,-549.6859946024655,3615.7247835188005,-423.7725451422533
8.540407180786133,-549.6862671509582,3615.727103901624,-423.7742888444406
8.559193849563599,-549.6866038465126,3615.7272357684706,-423.77461808735325
8.577929973602295,-549.6868708981883,3615.7260998430493,-423.7740008823768
8.59665036201477,-549.6869955330192,3615.7245231929605,-423.7730156657728
8.615454912185669,-549.6869666346327,3615.7231789594975,-423.7721124189855
8.634206771850586,-549.6868282320875,3615.722512709309,-423.7715864818001
8.652928590774536,-549.6866628776022,3615.7226535985633,-423.7715553091804
8.671664953231812,-549.6865611609965,3615.723308560144,-423.7719403721529
8.690407752990723,-549.6865726471462,3615.72407297357,-423.7724569863719
8.7091383934021,-549.686632358361,3615.7245473025987,-423.7728120190688
8.727862358093262,-549.6866961339504,3615.7245236809786,-423.7728387067503
8.746608257293701,-549.6867390322496,3615.724265658914,-423.7726936929813
8.765387296676636,-549.6867525508233,3615.723968647959,-423.77250125354414
8.784116744995117,-549.6867407160868,3615.723755528449,-423.77235129066077
8.802876949310303,-549.6867152343937,3615.7236787619986,-423.77228485314964
8.821596145629883,-549.6866900943697,3615.723728742248,-423.7723020965661
8.840346813201904,-549.6866762805979,3615.7238503455424,-423.7723736580427
8.859113931655884,-549.6866776208974,3615.72397002024,-423.7724554929288
8.877826929092407,-549.6866892668875,3615.7240361662493,-423.77250700500656
8.89652943611145,-549.6867009288617,3615.724032485518,-423.7725120068699
8.915254831314087,-549.6867077859118,3615.7239810038095,-423.77248200565
8.934014797210693,-549.6867089511079,3615.723926736093,-423.77244633553994
8.95276427268982,-549.6867059429937,3615.7238928438105,-423.77242159979585
8.971500873565674,-549.6867012822107,3615.7238852633955,-423.772413634421
8.990215539932251,-549.6866973388231,3615.72389823689,-423.7724198687971
9.008955717086792,-549.6866955492662,3615.7239201843795,-423.7724333703618
9.027691125869751,-549.6866960947557,3615.7239393285927,-423.77244649774127
9.046469926834106,-549.6866980761715,3615.7239482268983,-423.7724537817112
9.065216064453125,-549.686700121699,3615.723946047564,-423.7724536105894
9.083962202072144,-549.6867012071801,3615.7239370356956,-423.7724482711477
9.102749824523926,-549.6867012350119,3615.723927490714,-423.7724418975755
9.121470928192139,-549.686700579922,3615.7239221394034,-423.77243788676805
9.140194416046143,-549.6866997428034,3615.7239216797343,-423.77243704189084
9.158973455429077,-549.6866991227844,3615.723924563327,-426.59519488191125
9.177696704864502,-549.6866989068417,3615.7239284933203,-426.87747300666035
9.196400165557861,-549.6866990636436,3615.723931518963,-427.18797832044663
9.215154886245728,-549.6866994150813,3615.7239326524214,-427.52953281545507
9.233877897262573,-549.686699747114,3615.723931984804,-427.9052414472265
9.25267767906189,-549.6866999142081,3615.7239303605943,-428.3185202137781
9.271701097488403,-549.686699893459,3615.723928791898,-428.77312687409693
9.290455341339111,-549.6866997620871,3615.7239279675173,-429.27319473439184
9.309181213378906,-549.6866996147945,3615.723928015198,-429.8232700180735
9.32789421081543,-549.6866995182817,3615.7239286027775,-430.4283532312041
9.346627473831177,-549.6866994958295,3615.723929295082,-428.27118855432434
9.365337133407593,-549.6866995331341,3615.723929768257,-428.4387879215657
9.384047269821167,-549.6866995957633,3615.7239298957516,-428.59491941305635
9.402750015258789,-549.6866996489753,3615.72392973343,-428.7356135223173
9.421480655670166,-549.6866996723647,3615.7239294415313,-428.85622159300345
9.440232753753662,-549.6866996648898,3615.723929187204,-428.9513196075812
9.459013223648071,-549.6866996399579,3615.723929069865,-429.0145995469614
9.477731227874756,-549.6866996146077,3615.7239290976613,-429.0387468142479
9.496466398239136,-549.6866995998598,3615.723929210675,-429.01530202223347
9.515241622924805,-549.6866995983663,3615.7239293302237,-428.9345052226496
9.533960342407227,-549.6866996063749,3615.7239294029678,-428.7851204217941
9.552735567092896,-549.6866996174293,3615.7239294137557,-428.8365136085411
9.571451902389526,-549.6866996258589,3615.723929378306,-428.87628617723857
9.590149879455566,-549.6866996288684,3615.7239293265616,-428.9044228536568
9.608907222747803,-549.6866996268577,3615.723929285875,-428.92130378679065
9.627627849578857,-549.6866996223071,3615.72392927031,-428.92781200616946
9.646371603012085,-549.6866996180488,3615.7239292786203,-428.9254612460283
9.66508412361145,-549.6866996158578,3615.7239292994955,-428.91654741593504
9.683840274810791,-549.6866996159829,3615.723929319679,-428.9043274761037
9.702566146850586,-549.6866996175952,3615.7239293305793,-428.89323002149075
9.721558570861816,-549.6866996195181,3615.7239293306147,-428.88910250137485
9.740308046340942,-549.6866996208324,3615.7239293233797,-428.8995007093329
9.759158849716187,-549.6866996211728,3615.723929314342,-428.90579941941206
9.7778799533844,-549.6866996207042,3615.723929307946,-428.90875074362947
9.796597957611084,-549.6866996198877,3615.723929306084,-428.9091835326268
9.815354585647583,-549.6866996191908,3615.723929308105,-428.9079715072104
9.834077835083008,-549.6866996188792,3615.723929311885,-428.9059874573144
9.852814197540283,-547.9180296570742,3615.723929315211,-428.904040078443
9.871606349945068,-547.7411626611959,3615.7239293167827,-428.9027893446938
9.890345811843872,-547.5466089657172,3615.723929316493,-428.90263553155285
9.909087181091309,-547.3325999005293,3615.723929315084,-428.9035760825591
9.927797079086304,-547.0971899286304,3615.723929313531,-428.90502344067744
9.946503400802612,-546.8382389594102,3615.7239293125467,-428.90557571381186
9.965234518051147,-546.5533928932339,3615.7239293123675,-428.9055533432519
9.98397445678711,-546.2400622204868,3615.723929312809,-428.905233603214
10.00270414352417,-545.8953984805469,3615.7239293134817,-428.9048386102728
10.0214364528656,-545.5162683666824,3615.723929314019,-428.90452532057907
10.04015851020813,-546.8678952033507,3615.7239293142325,-428.9043791069056
10.05889368057251,-546.7628817579783,3615.7239293141342,-428.9044130097518
10.077635288238525,-546.6650536676565,3615.72392931387,-428.9045753762577
10.096349954605103,-546.5768981378504,3615.723929313608,-428.9047693607282
10.115118265151978,-546.5013279615825,3615.7239293134603,-428.904888688545
10.133824348449707,-546.4417417648779,3615.723929313453,-428.9048752133318
10.152549743652344,-554.1579178689369,3615.723929313544,-428.9048051632838
10.171308279037476,-554.9183703665072,3615.7239293136613,-428.90473034528696
10.190031290054321,-555.7862011811093,3615.7239293137454,-428.9046800194942
10.208792924880981,-556.7752814511656,3615.7239293137727,-428.9046641604165
10.227627038955688,-557.9011827596139,3615.7239293137477,-428.90467804440016
10.246357917785645,-559.0045115152401,3615.7239293137,-428.90470793814967
10.265097856521606,-560.2286744909662,3615.7239293136563,-428.90473743098937
10.283859014511108,-561.5850365732972,3615.723929313635,-428.90475363646254
10.302569150924683,-563.0858504168418,3615.723929313637,-428.90475206403596
10.321287393569946,-564.7443026623679,3615.7239293136545,-428.9047384015851
10.340004205703735,-558.8187329286046,3615.723929313675,-428.9047247204104
10.358728170394897,-559.2848144345714,3615.723929313689,-428.9047166761231
10.377520084381104,-559.7214588413779,3615.723929313691,-428.90471530920667
10.396250247955322,-560.1149846074047,3615.7239293136854,-428.9047188381779
10.41501498222351,-560.4489549230286,3615.723929313677,-428.9047243059541
10.43374252319336,-560.7037321393701,3615.72392931367,-428.90472893210944
10.452454805374146,-560.873654201783,3615.7239293136663,-428.90473103150543
10.4712553024292,-560.9381521728648,3615.7239293136677,-428.90473039155694
10.489972829818726,-560.8734637328215,3615.7239293136713,-428.90472806706646
10.508733034133911,-560.6522250644194,3615.7239293136745,-428.9047256673695
10.527472734451294,-560.2430173046246,3615.7239293136763,-428.90472439394796
10.546199083328247,-560.3854457422265,3615.7239293136763,-428.90472436130165
10.564951181411743,-560.4955088729922,3615.723929313675,-428.9047251298196
10.58371376991272,-560.5729138761535,3615.7239293136736,-428.9047261118809
10.602437734603882,-560.6187068030284,3615.7239293136727,-428.9047268392513
10.62120270729065,-560.6356819910284,3615.723929313672,-428.9047270925809
10.63998818397522,-560.6288769761943,3615.7239293136727,-428.90472690862805
10.658746004104614,-560.6043992536354,3615.7239293136736,-428.9047264963403
10.677522659301758,-560.5710239617124,3615.7239293136736,-428.9047261068187
10.696281909942627,-560.5407799846014,3615.7239293136745,-428.9047259107939
10.71504545211792,-560.5296354766197,3615.7239293136745,-428.9047259351363
10.733774423599243,-560.5582972938194,3615.7239293136745,-428.9047260892551
10.75252366065979,-560.5755824489785,3615.7239293136736,-428.9047262620505
10.771265745162964,-560.5835898065772,3615.7239293136736,-428.9047263752735
10.790024042129517,-560.5846573996195,3615.7239293136736,-428.9047264016129
10.808756828308105,-560.5812524592786,3615.7239293136736,-428.9047263578491
10.827504634857178,-560.5758095061036,3615.7239293136736,-428.9047262843759
10.846228837966919,-560.5705027590946,3615.7239293136736,-428.9047262219507
10.864965438842773,-560.5671131096404,3615.7239293136736,-428.9047261945117
10.88372540473938,-560.5667220244334,3615.7239293136736,-428.90472620328103
10.902449607849121,-560.5693162284165,3615.7239293136736,-428.9047262325297
10.921177625656128,-560.5732843035961,3615.7239293136736,-428.90472626226904
10.939894437789917,-560.5747830045738,3615.7239293136736,-428.9047262795704
10.958612203598022,-560.5747030601333,3615.7239293136736,-428.9047262813224
10.977350950241089,-560.573814385489,3615.7239293136736,-428.9047262719272
10.996106624603271,-560.5727300840759,3615.7239293136736,-427.2142536317659
11.014867305755615,-560.5718778465557,3615.7239293136736,-427.0452063591576
11.03359341621399,-560.571484680601,3615.7239293136736,-426.8592543666358
11.05241870880127,-560.5715828727515,3615.7239293136736,-426.6547071811043
11.07121229171753,-560.5720298490626,3615.7239293136736,-426.4297052797636
11.08995270729065,-560.5725606315256,3615.7239293136736,-426.18220318741186
11.108683109283447,-560.5728850718364,3615.7239293136736,-425.9099508829001
11.127405881881714,-560.5728451486605,3615.7239293136736,-425.61047334496317
11.146139860153198,-560.5726513630691,3615.7239293136736,-425.2810480515024
11.164847135543823,-560.5724461933626,3615.7239293136736,-424.9186802285205
11.183567762374878,-560.5723093741501,3615.7239293136736,-426.21054825137253
11.202322721481323,-560.5722673031574,3615.7239293136736,-426.1101777133332
11.22107744216919,-560.5723062488177,3615.7239293136736,-426.0166748487507
11.239808082580566,-560.5723884056393,3615.7239293136736,-425.93241689696225
11.258526802062988,-560.5724689589281,3615.7239293136736,-425.860187868548
11.277534246444702,-560.5725128699146,3615.7239293136736,-425.8032361274265
11.29629373550415,-560.5725080937534,3615.7239293136736,-425.76533942142794
11.31506061553955,-560.5724703959453,3615.7239293136736,-425.7508782752808
11.33377480506897,-560.5724329206737,3615.7239293136736,-425.7649187683125
11.352479219436646,-560.5724110764343,3615.7239293136736,-425.8133058399935
11.371246337890625,-560.5724075647414,3615.7239293136736,-425.90276840114075
11.389957904815674,-560.5724173838005,3615.7239293136736,-425.87199041611757
11.408703327178955,-560.5724323918648,3615.7239293136736,-425.84817168639603
11.427430152893066,-560.5724450061696,3615.7239293136736,-425.83132137016054
11.446204662322998,-560.5724506662226,3615.7239293136736,-425.82121181748045
11.464915990829468,-560.572448836952,3615.7239293136736,-425.8173142123736
11.483643770217896,-560.5724424336559,3615.7239293136736,-425.81872202086845
11.502429008483887,-560.572435867646,3615.7239293136736,-425.8240602808125
11.521162271499634,-560.5724324148161,3615.7239293136736,-425.83137848136556
11.539880990982056,-560.5724323642303,3615.7239293136736,-425.83802445267094
11.558593511581421,-560.5724344930098,3615.7239293136736,-425.8404963139386
11.577366590499878,-560.5724371858366,3615.7239293136736,-425.83426910521837
11.596083164215088,-560.5724391660403,3615.7239293136736,-425.83049697412844
11.614820957183838,-560.5724398434579,3615.7239293136736,-425.82872950290175
11.63353419303894,-560.5724393271869,3615.7239293136736,-425.8284703161759
11.652268648147583,-560.5724381932832,3615.7239293136736,-425.8291961660455
11.67105746269226,-560.5724371289164,3615.7239293136736,-425.8303843614126
11.690118074417114,-560.5724365984423,3615.7239293136736,-425.831550595467
11.708913087844849,-560.5724366715219,3615.7239293136736,-425.83229962693247
11.727633953094482,-560.5724370971926,3615.7239293136736,-425.8323917414891
11.746355295181274,-560.5724375704888,3615.7239293136736,-425.83182847037097
11.765089750289917,-560.5724378782368,3615.7239293136736,-425.83096168601423
11.783812046051025,-560.5724379474767,3615.7239293136736,-425.8306309440938
11.80254054069519,-560.5724378256205,3615.7239293136736,-425.83064434109036
11.821306705474854,-560.5724376238365,3615.7239293136736,-425.8308358249092
11.840017795562744,-560.5724374535016,3615.7239293136736,-425.8310723757824
11.858735084533691,-560.5724373795234,3615.7239293136736,-425.8312599967562
11.877502202987671,-560.5724374045842,3615.7239293136736,-425.8313475602905
11.896219968795776,-560.5724374851983,3615.7239293136736,-425.83132725677285
11.914983987808228,-560.5724375665659,3615.7239293136736,-425.8312300197569
11.933712005615234,-560.5724376135032,3615.7239293136736,-425.83111384758377
11.952432870864868,-560.5724376178047,3615.7239293136736,-425.83104238530507
11.971255779266357,-560.5724375917616,3615.7239293136736,-425.83105045523405
11.989985227584839,-560.5724375561902,3615.7239293136736,-425.83109240634815
12.008684158325195,-560.5724375292469,3615.7239293136736,-425.8311372128739
12.027437925338745,-560.572437519788,3615.7239293136736,-425.8311673516704
12.046469688415527,-560.5724375264166,3615.7239293136736,-425.8311768492591
12.065256357192993,-560.5724375411058,3615.7239293136736,-425.83116853450946
12.083977460861206,-560.5724375547582,3615.7239293136736,-425.83115063193134
12.102682113647461,-560.572437561714,3615.7239293136736,-425.8311329694472
12.121472597122192,-560.5724375612289,3615.7239293136736,-425.83112326441625
12.140322923660278,-560.5724375560014,3615.7239293136736,-425.8311242060994
12.159090995788574,-560.5724375498211,3615.7239293136736,-425.83113238817884
12.177801370620728,-560.572437545627,3615.7239293136736,-425.8311405814734
12.19652247428894,-560.5724375445709,3615.7239293136736,-425.831145398986
12.215261220932007,-560.5724375461031,3615.7239293136736,-425.83114621759717
12.234024047851562,-560.5724375487346,3615.7239293136736,-425.83114410418983
12.252729177474976,-560.5724375509665,3615.7239293136736,-425.83114082968285
12.271515846252441,-560.5724375519526,3615.7239293136736,-425.8311380592002
12.290253162384033,-560.572437551672,3615.7239293136736,-425.8311368019271
12.308977365493774,-560.5724375506678,3615.7239293136736,-425.83113718517507
12.327701330184937,-560.5724375496117,3615.7239293136736,-425.83113857725095
12.346413850784302,-560.5724375489727,3615.7239293136736,-425.83114001436616
12.365122556686401,-560.5724375488878,3615.7239293136736,-425.83114077698485
12.383853435516357,-560.572437549214,3615.7239293136736,-425.83114079653603
12.402545928955078,-560.5724375496783,3615.7239293136736,-425.831140336291
12.421298742294312,-560.5724375500357,3615.7239293136736,-425.8311397481604
12.440027236938477,-560.5724375501659,3615.7239293136736,-425.83113931255747
12.45875096321106,-560.5724375500859,3615.7239293136736,-425.83113916084494
12.477461099624634,-560.5724375498992,3615.7239293136736,-425.8311392710093
12.496209383010864,-560.5724375497219,3615.7239293136736,-425.83113951791756
12.51496410369873,-560.5724375496274,3615.7239293136736,-425.83113975119176
12.533699035644531,-560.572437549629,3615.7239293136736,-425.83113986858586
12.552419662475586,-560.5724375496945,3615.7239293136736,-425.83113985400786
12.571160554885864,-560.5724375497753,3615.7239293136736,-425.83113976171023
12.589891910552979,-560.5724375498314,3615.7239293136736,-425.8311396582276
12.60867428779602,-560.5724375498465,3615.7239293136736,-425.8311395904213
12.62744140625,-560.5724375498277,3615.7239293136736,-425.8311395746474
12.646233081817627,-560.5724375497939,3615.7239293136736,-425.8311396008564
12.664965152740479,-560.5724375497647,3615.7239293136736,-425.83113964485744
12.683701992034912,-560.5724375497513,3615.7239293136736,-425.8311396822422
12.702430248260498,-560.5724375497541,3615.7239293136736,-425.83113969867475
12.72113299369812,-560.5724375497668,3615.7239293136736,-425.8311396934231
12.739904880523682,-560.5724375497806,3615.7239293136736,-425.8311396759068
12.758630990982056,-560.5724375497891,3615.7239293136736,-425.83113965809673
12.777347803115845,-560.5724375497905,3615.7239293136736,-425.83113964773537
12.79610562324524,-560.5724375497864,3615.7239293136736,-425.8311396466862
12.81482720375061,-560.5724375497805,3615.7239293136736,-425.8311396523126
12.833531141281128,-560.5724375497757,3615.7239293136736,-425.83113966007915
12.85226058959961,-560.572437549774,3615.7239293136736,-425.8311396660014
12.87101125717163,-560.5724375497749,3615.7239293136736,-425.8311396681158
12.889767408370972,-560.5724375497773,3615.7239293136736,-425.83113966670317
12.9084951877594,-560.5724375497796,3615.7239293136736,-425.8311396635061
12.927246809005737,-560.5724375497808,3615.7239293136736,-425.83113966051434
12.945972442626953,-560.572437549781,3615.7239293136736,-425.8311396589751
12.964720249176025,-560.57243754978,3615.7239293136736,-425.83113965906284
12.983447074890137,-560.5724375497791,3615.7239293136736,-425.8311396601956
13.00215458869934,-560.5724375497782,3615.7239293136736,-425.8311396615467
13.020877838134766,-560.5724375497781,3615.7239293136736,-425.8311396624701
13.039610385894775,-560.5724375497783,3615.7239293136736,-425.8311396627091
13.058382749557495,-560.5724375497789,3615.7239293136736,-425.8311396623799
13.07710886001587,-560.5724375497791,3615.7239293136736,-425.8311396618063
13.09585690498352,-560.5724375497794,3615.7239293136736,-425.83113966131657
13.11459469795227,-560.5724375497794,3615.7239293136736,-425.83113966109767
13.133332014083862,-560.5724375497791,3615.7239293136736,-425.831139661156
13.152096033096313,-560.572437549779,3615.7239293136736,-425.8311396613741
13.170827627182007,-560.5724375497789,3615.7239293136736,-425.8311396616053
13.189547777175903,-560.572437549779,3615.7239293136736,-425.83113966174614
13.20827317237854,-560.572437549779,3615.7239293136736,-425.83113966176614
13.227039575576782,-560.5724375497791,3615.7239293136736,-425.83113966169566
13.245752334594727,-560.5724375497791,3615.7239293136736,-425.83113966159436
13.264749526977539,-560.5724375497791,3615.7239293136736,-425.83113966151575
13.28351879119873,-560.5724375497791,3615.7239293136736,-425.83113966148676
13.302237033843994,-560.5724375497791,3615.7239293136736,-425.83113966150376
13.320952415466309,-560.5724375497791,3615.7239293136736,-425.8311396615444
13.33967113494873,-560.5724375497791,3615.7239293136736,-425.8311396615833
13.358435869216919,-560.5724375497791,3615.7239293136736,-425.8311396616042
13.37714672088623,-560.5724375497792,3615.7239293136736,-425.83113966160397
13.395858764648438,-560.5724375497792,3615.7239293136736,-425.8311396615898
13.414589881896973,-560.5724375497792,3615.7239293136736,-425.83113966157214
13.433326959609985,-560.5724375497792,3615.7239293136736,-425.83113966155986
13.45206880569458,-560.5724375497792,3615.7239293136736,-425.83113966155645
13.470816612243652,-560.5724375497792,3615.7239293136736,-425.83113966156054
13.489544153213501,-560.5724375497792,3615.7239293136736,-425.8311396615679
13.508263111114502,-560.5724375497792,3615.7239293136736,-425.83113966157424
13.527051210403442,-560.5724375497792,3615.7239293136736,-429.7480256954197
13.545767307281494,-560.5724375497792,3615.7239293136736,-436.56491172926144
13.564498901367188,-560.5724375497792,3615.7239293136736,-441.38179776310096
13.583256721496582,-560.5724375497792,3615.7239293136736,-442.93686357325066
13.601996660232544,-560.5724375497792,3615.7239293136736,-444.64743596441684
13.620716333389282,-560.5724375497792,3615.7239293136736,-446.5290655947013
13.639460325241089,-560.5724375497792,3615.7239293136736,-448.59885818801547
13.658477306365967,-560.5724375497792,3615.7239293136736,-442.4157442218599
13.677320003509521,-560.5724375497792,3615.7239293136736,-445.63263025570376
13.696105718612671,-560.5724375497792,3615.7239293136736,-447.6127793151174
13.7149498462677,-560.5724375497792,3615.7239293136736,-445.87405724662915
13.733686923980713,-560.5724375497792,3615.7239293136736,-441.061462971292
13.752399206161499,-560.5724375497792,3615.7239293136736,-437.76760926842115
13.771202325820923,-560.5724375497792,3615.7239293136736,-437.40619041895314
13.789958715438843,-560.5724375497792,3615.7239293136736,-436.8531231035234
13.80867338180542,-560.5724375497792,3615.7239293136736,-430.38837950708165
13.827439546585083,-560.5724375497792,3615.7239293136736,-428.7743108983198
13.846170425415039,-560.5724375497792,3615.7239293136736,-435.25174198815176
13.864930391311646,-560.5724375497792,3615.7239293136736,-432.976916186967
13.883666038513184,-560.5724375497792,3615.7239293136736,-428.61365316139666
13.902394533157349,-560.5724375497792,3615.7239293136736,-426.71374054602455
13.921173810958862,-560.5724375497792,3615.7239293136736,-424.7977088759641
13.93991756439209,-560.5724375497792,3615.7239293136736,-423.1713334664313
13.958636999130249,-560.5724375497792,3615.7239293136736,-421.71170588623227
13.977424144744873,-560.5724375497792,3615.7239293136736,-420.1422574329602
13.996155738830566,-560.5724375497792,3615.7239293136736,-424.1564831762562
14.014885187149048,-560.5724375497792,3615.7239293136736,-423.53329354317367
14.033630609512329,-560.5724375497792,3615.7239293136736,-430.4558624533418
14.052360534667969,-560.5724375497792,3615.7239293136736,-429.9762744998608
14.071134567260742,-560.5724375497792,3615.7239293136736,-432.77390194984685
14.089887619018555,-560.5724375497792,3615.7239293136736,-433.18992682869185
14.108609676361084,-560.5724375497792,3615.7239293136736,-433.8375454569585
14.12735390663147,-560.5724375497792,3615.7239293136736,-434.741529115058
14.146096229553223,-560.5724375497792,3615.7239293136736,-435.8985486799206
14.164813041687012,-560.5724375497792,3615.7239293136736,-437.3172329592895
14.183617353439331,-560.5724375497792,3615.7239293136736,-439.0347305119224
14.202352523803711,-560.5724375497792,3615.7239293136736,-440.522555245489
14.221069097518921,-560.5724375497792,3615.7239293136736,-434.77481077003796
14.239785194396973,-560.5724375497792,3615.7239293136736,-435.20670560170754
14.258493185043335,-560.5724375497792,3615.7239293136736,-435.7297487118923
14.277216911315918,-560.5724375497792,3615.7239293136736,-436.0253333880968
14.29596734046936,-560.5724375497792,3615.7239293136736,-436.3088740440373
14.314775705337524,-560.5724375497792,3615.7239293136736,-436.55600690274525
14.333535194396973,-560.5724375497792,3615.7239293136736,-436.7374546815139
14.35226058959961,-560.5724375497792,3615.7239293136736,-436.8213452816732
14.371040105819702,-560.5724375497792,3615.7239293136736,-436.77175651391155
14.389795064926147,-560.5724375497792,3615.7239293136736,-436.54545911411043
14.408538103103638,-560.5724375497792,3615.7239293136736,-436.1477495009726
14.427295446395874,-560.5724375497792,3615.7239293136736,-436.2850433740661
14.446033954620361,-560.5724375497792,3615.7239293136736,-436.39287715130195
14.464761734008789,-560.5724375497792,3615.7239293136736,-436.4591899952429
14.483501195907593,-560.5724375497792,3615.7239293136736,-436.50257565595746
14.50225567817688,-560.5724375497792,3615.7239293136736,-436.52194581714946
14.520977258682251,-560.5724375497792,3615.7239293136736,-436.5185397085899
14.539725065231323,-560.5724375497792,3615.7239293136736,-436.49664821129755
14.558452606201172,-560.5724375497792,3615.7239293136736,-436.46417850425996
14.57719349861145,-560.5724375497792,3615.7239293136736,-436.4334207032949
14.595982789993286,-560.5724375497792,3615.7239293136736,-436.4222168622133
14.614723205566406,-560.5724375497792,3615.7239293136736,-436.44966359833734
14.633508920669556,-560.5724375497792,3615.7239293136736,-436.46612562076444
14.652228116989136,-560.5724375497792,3615.7239293136736,-436.4734504677107
14.67097783088684,-560.5724375497792,3615.7239293136736,-436.4748765149575
14.689740180969238,-560.5724375497792,3615.7239293136736,-436.4721066008575
14.708469152450562,-560.5724375497792,3615.7239293136736,-429.7199120191426
14.72726321220398,-560.5724375497792,3615.7239293136736,-429.0400492501978
14.745980978012085,-560.5724375497792,3615.7239293136736,-423.49038442906806
14.76471471786499,-560.5724375497792,3615.7239293136736,-422.1930050215489
14.783442735671997,-560.5724375497792,3615.7239293136736,-420.7689634533743
14.80217957496643,-560.5724375497792,3615.7239293136736,-419.20363811249035
14.820914506912231,-560.5724375497792,3615.7239293136736,-417.47903556390565
14.83963394165039,-560.5724375497792,3615.7239293136736,-415.5803265582198
14.858400583267212,-560.5724375497792,3615.7239293136736,-418.33298151144874
14.877118349075317,-560.5724375497792,3615.7239293136736,-416.51879201109784
14.89584493637085,-560.5724375497792,3615.7239293136736,-421.2706712122076
14.914596557617188,-560.5724375497792,3615.7239293136736,-422.49868001029336
14.933330535888672,-560.5724375497792,3615.7239293136736,-426.64854801132276
14.952041864395142,-560.5724375497792,3615.7239293136736,-426.9643643695482
14.970748901367188,-560.5724375497792,3615.7239293136736,-427.4415003043481
14.989493370056152,-560.5724375497792,3615.7239293136736,-428.10875398944546
15.008244514465332,-560.5724375497792,3615.7239293136736,-428.999265577141
15.027052402496338,-560.5724375497792,3615.7239293136736,-430.1512885784646
15.04578948020935,-560.5724375497792,3615.7239293136736,-426.766417436311
15.064533472061157,-560.5724375497792,3615.7239293136736,-427.6097610287973
15.083285570144653,-560.5724375497792,3615.7239293136736,-428.7188579305672
15.102036714553833,-560.5724375497792,3615.7239293136736,-427.3907437236239
15.12081265449524,-560.5724375497792,3615.7239293136736,-427.879950094957
15.139586448669434,-560.5724375497792,3615.7239293136736,-428.0030903033204
15.158324718475342,-560.5724375497792,3615.7239293136736,-428.1069628966976
15.177045345306396,-560.5724375497792,3615.7239293136736,-428.1735091559325
15.195769309997559,-560.5724375497792,3615.7239293136736,-428.1799846725812
15.21451735496521,-560.5724375497792,3615.7239293136736,-428.09805658212525
15.233240365982056,-560.5724375497792,3615.7239293136736,-427.8927333824913
15.252228260040283,-560.5724375497792,3615.7239293136736,-428.00536497710937
15.271079778671265,-560.5724375497792,3615.7239293136736,-428.04492537194056
15.289813995361328,-560.5724375497792,3615.7239293136736,-427.9775321160779
15.308545351028442,-560.5724375497792,3615.7239293136736,-428.0362109553233
15.327272891998291,-560.5724375497792,3615.7239293136736,-428.0518370413599
15.346044063568115,-560.5724375497792,3615.7239293136736,-428.0567117151639
15.364804029464722,-560.5724375497792,3615.7239293136736,-428.0516865970105
15.383582830429077,-560.5724375497792,3615.7239293136736,-428.0395043411183
15.402317523956299,-560.5724375497792,3615.7239293136736,-428.02545630797204
15.421048879623413,-560.5724375497792,3615.7239293136736,-428.0181962805567
15.439751386642456,-560.5724375497792,3615.7239293136736,-428.03074257036326
15.458460092544556,-560.5724375497792,3615.7239293136736,-428.03328032968864
15.477160692214966,-560.5724375497792,3615.7239293136736,-428.0321158254634
15.495916366577148,-560.5724375497792,3615.7239293136736,-428.037574196402
15.514680624008179,-560.5724375497792,3615.7239293136736,-428.0377105205099
15.533421039581299,-560.5724375497792,3615.7239293136736,-428.03629786842487
15.55222463607788,-560.5724375497792,3615.7239293136736,-428.03425648375094
15.571001529693604,-560.5724375497792,3615.7239293136736,-428.03251347242497
15.589715719223022,-560.5724375497792,3615.7239293136736,-428.03181438555566
15.608423471450806,-560.5724375497792,3615.7239293136736,-428.03245019331405
15.627507209777832,-560.5724375497792,3615.7239293136736,-428.03387558458974
15.64626693725586,-560.5724375497792,3615.7239293136736,-428.03418888601243
15.664995908737183,-560.5724375497792,3615.7239293136736,-428.0342797416448
15.683739423751831,-560.5724375497792,3615.7239293136736,-428.0344961332629
15.702472686767578,-560.5724375497792,3615.7239293136736,-428.034188326949
15.721256017684937,-560.5724375497792,3615.7239293136736,-428.03383610759295
15.740033626556396,-560.5724375497792,3615.7239293136736,-428.03358993150977
15.758753776550293,-560.5724375497792,3615.7239293136736,-428.0335232762856
15.777474641799927,-560.5724375497792,3615.7239293136736,-428.03362425667166
15.796205282211304,-560.5724375497792,3615.7239293136736,-428.03380524378326
15.814993143081665,-560.5724375497792,3615.7239293136736,-428.03394074883016
15.833751678466797,-560.5724375497792,3615.7239293136736,-428.0339472652542
15.852482080459595,-560.5724375497792,3615.7239293136736,-428.0339231031784
15.871248245239258,-560.5724375497792,3615.7239293136736,-428.03388743933175
15.8899667263031,-560.5724375497792,3615.7239293136736,-428.03382656993864
15.908668994903564,-560.5724375497792,3615.7239293136736,-428.0337903942376
15.927459716796875,-560.5724375497792,3615.7239293136736,-428.03378582290213
15.94619107246399,-560.5724375497792,3615.7239293136736,-428.03380541204143
15.964928150177002,-560.5724375497792,3615.7239293136736,-428.033833625617
15.983649730682373,-560.5724375497792,3615.7239293136736,-428.0338545625115
16.00236415863037,-560.5724375497792,3615.7239293136736,-428.03385949438433
16.02106809616089,-560.5724375497792,3615.7239293136736,-428.0338513689397
16.039827585220337,-560.5724375497792,3615.7239293136736,-428.0338417793082
16.05853581428528,-560.5724375497792,3615.7239293136736,-428.03383364692127
16.077266454696655,-560.5724375497792,3615.7239293136736,-428.0338282676801
16.09598469734192,-560.5724375497792,3615.7239293136736,-428.0338284374543
16.11470055580139,-560.5724375497792,3615.7239293136736,-428.03383224177605
16.13344430923462,-560.5724375497792,3615.7239293136736,-428.0338368836634
16.15217113494873,-560.5724375497792,3615.7239293136736,-428.0338400308257
16.170995235443115,-560.5724375497792,3615.7239293136736,-428.03384067134647
16.18972659111023,-560.5724375497792,3615.7239293136736,-428.0338392822299
16.208436012268066,-560.5724375497792,3615.7239293136736,-428.03383726101447
16.227216482162476,-560.5724375497792,3615.7239293136736,-428.03383585022203
16.24596905708313,-560.5724375497792,3615.7239293136736,-428.03383525731334
16.264682292938232,-560.5724375497792,3615.7239293136736,-428.03383541835257
16.28343105316162,-560.5724375497792,3615.7239293136736,-428.03383613341987
16.302195072174072,-560.5724375497792,3615.7239293136736,-428.03383690301644
16.32091212272644,-560.5724375497792,3615.7239293136736,-428.0338373691405
16.339640855789185,-560.5724375497792,3615.7239293136736,-428.0338374176881
16.358358144760132,-560.5724375497792,3615.7239293136736,-428.0338371563744
16.377076625823975,-560.5724375497792,3615.7239293136736,-428.0338368048771
16.395774602890015,-560.5724375497792,3615.7239293136736,-428.03383655714185
16.41447687149048,-560.5724375497792,3615.7239293136736,-428.03383648675464
16.433195114135742,-560.5724375497792,3615.7239293136736,-428.0338365504079
16.451959133148193,-560.5724375497792,3615.7239293136736,-428.0338366797173
16.470693826675415,-560.5724375497792,3615.7239293136736,-428.03383680585387
16.489474534988403,-560.5724375497792,3615.7239293136736,-428.03383687309724
16.508196115493774,-560.5724375497792,3615.7239293136736,-428.03383687010535
16.52691102027893,-560.5724375497792,3615.7239293136736,-428.03383682020177
16.545645475387573,-560.5724375497792,3615.7239293136736,-428.03383676045314
16.564356803894043,-560.5724375497792,3615.7239293136736,-428.033836720861
16.583106756210327,-560.5724375497792,3615.7239293136736,-428.0338367124594
16.601821660995483,-560.5724375497792,3615.7239293136736,-428.0338367279912
16.620545148849487,-560.5724375497792,3615.7239293136736,-428.0338367521149
16.639264345169067,-560.5724375497792,3615.7239293136736,-428.03383677228555
16.658005952835083,-560.5724375497792,3615.7239293136736,-428.03383678154233
16.676732063293457,-560.5724375497792,3615.7239293136736,-428.03383677911114
16.695452213287354,-560.5724375497792,3615.7239293136736,-428.0338367697126
16.714159727096558,-560.5724375497792,3615.7239293136736,-428.03383675967325
16.732866048812866,-560.5724375497792,3615.7239293136736,-428.03383675362045
16.75158715248108,-560.5724375497792,3615.7239293136736,-428.0338367529372
16.770317792892456,-560.5724375497792,3615.7239293136736,-428.03383675614486
16.789040327072144,-560.5724375497792,3615.7239293136736,-428.03383676051334
16.807761430740356,-560.5724375497792,3615.7239293136736,-428.03383676376563
16.826491355895996,-560.5724375497792,3615.7239293136736,-428.0338367649307
16.84522294998169,-560.5724375497792,3615.7239293136736,-428.03383676419514
16.863994359970093,-560.5724375497792,3615.7239293136736,-428.0338367624604
16.882713794708252,-560.5724375497792,3615.7239293136736,-428.0338367607954
16.901424407958984,-560.5724375497792,3615.7239293136736,-428.03383675990364
16.920145750045776,-560.5724375497792,3615.7239293136736,-428.0338367599267
16.93900752067566,-560.5724375497792,3615.7239293136736,-428.0338367605574
16.957757234573364,-560.5724375497792,3615.7239293136736,-428.0338367613193
16.97649574279785,-560.5724375497792,3615.7239293136736,-428.03383676183677
16.9952552318573,-560.5724375497792,3615.7239293136736,-428.0338367619691
17.0139639377594,-560.5724375497792,3615.7239293136736,-428.0338367617895
17.032690048217773,-560.5724375497792,3615.7239293136736,-428.0338367614753
17.051440715789795,-560.5724375497792,3615.7239293136736,-428.03383676120336
17.070222854614258,-560.5724375497792,3615.7239293136736,-428.0338367610777
17.0889732837677,-560.5724375497792,3615.7239293136736,-428.033836761106
17.107683658599854,-560.5724375497792,3615.7239293136736,-428.0338367612261
17.126394271850586,-560.5724375497792,3615.7239293136736,-428.0338367613561
17.145097017288208,-560.5724375497792,3615.7239293136736,-428.03383676143596
17.163850784301758,-560.5724375497792,3615.7239293136736,-428.0338367614477
17.182575225830078,-560.5724375497792,3615.7239293136736,-428.03383676140874
17.201358556747437,-560.5724375497792,3615.7239293136736,-428.03383676135263
17.220113039016724,-560.5724375497792,3615.7239293136736,-428.03383676130886
17.239222526550293,-560.5724375497792,3615.7239293136736,-428.03383676129226
17.257972478866577,-560.5724375497792,3615.7239293136736,-428.03383676130125
17.276714086532593,-560.5724375497792,3615.7239293136736,-428.0338367613235
17.295424461364746,-560.5724375497792,3615.7239293136736,-428.03383676134524
17.3142032623291,-560.5724375497792,3615.7239293136736,-428.0338367613572
17.332926511764526,-560.5724375497792,3615.7239293136736,-428.0338367613573
17.35165762901306,-560.5724375497792,3615.7239293136736,-428.03383676134945
17.37037444114685,-560.5724375497792,3615.7239293136736,-428.0338367613396
17.389118194580078,-560.5724375497792,3615.7239293136736,-428.03383676133274
17.40786623954773,-560.5724375497792,3615.7239293136736,-428.0338367613307
17.426576614379883,-560.5724375497792,3615.7239293136736,-428.0338367613329
17.44529891014099,-560.5724375497792,3615.7239293136736,-428.033836761337
17.464043378829956,-560.5724375497792,3615.7239293136736,-428.0338367613405
17.482805013656616,-560.5724375497792,3615.7239293136736,-428.0338367613423
17.50153398513794,-560.5724375497792,3610.451536382306,-428.033836761342
17.520281314849854,-560.5724375497792,3609.9242970891696,-428.03383676134047
17.539059162139893,-560.5724375497792,3609.344333866719,-428.0338367613388
17.557776927947998,-560.5724375497792,3608.7063743220233,-428.0338367613376
17.576520442962646,-560.5724375497792,3608.004618822858,-428.03383676133745
17.595561027526855,-560.5724375497792,3607.232687773777,-428.03383676133797
17.614322662353516,-560.5724375497792,3606.3835636197873,-428.0338367613387
17.633033514022827,-560.5724375497792,3605.449527050399,-428.03383676133933
17.651753425598145,-560.5724375497792,3604.4220868240714,-428.03383676133956
17.67047667503357,-560.5724375497792,3601.349693892704,-428.03383676133944
17.68922781944275,-560.5724375497792,3608.549693892704,-428.0338367613391
17.707952976226807,-560.5724375497792,3608.3595096437434,-428.0338367613388
17.726762294769287,-560.5724375497792,3608.2030308992007,-428.03383676133865
17.74549651145935,-560.5724375497792,3608.088900602449,-428.03383676133865
17.764230489730835,-560.5724375497792,3608.0271532304914,-428.0338367613388
17.783004999160767,-560.5724375497792,3608.0294066712545,-428.0338367613389
17.801758289337158,-560.5724375497792,3608.109078561002,-428.033836761339
17.820489168167114,-560.5724375497792,3608.281630055124,-428.0338367613391
17.83925461769104,-560.5724375497792,3608.564840355597,-428.033836761339
17.857969045639038,-560.5724375497792,3610.9213243911568,-428.0338367613389
17.87670874595642,-560.5724375497792,3608.5134568302724,-428.0338367613389
17.895453929901123,-560.5724375497792,3608.5098331240297,-428.0338367613388
17.914159059524536,-560.5724375497792,3608.5248654720576,-428.0338367613389
17.93286371231079,-560.5724375497792,3608.5570489293436,-428.0338367613389
17.951594829559326,-560.5724375497792,3608.603863762033,-428.033836761339
17.97030544281006,-560.5724375497792,3608.661534815187,-428.033836761339
17.98903489112854,-560.5724375497792,3608.72474762958,-428.033836761339
18.0077486038208,-560.5724375497792,3608.7863145364377,-428.033836761339
18.0264732837677,-560.5724375497792,3608.8367829845693,-428.0338367613389
18.04557180404663,-560.5724375497792,3608.863977247467,-428.0338367613389
18.064330101013184,-560.5724375497792,3608.6582425330985,-428.0338367613389
18.083104372024536,-560.5724375497792,3608.672721103381,-428.0338367613389
18.101831674575806,-560.5724375497792,3608.689009901316,-428.0338367613389
18.12057328224182,-560.5724375497792,3608.7054243442412,-428.033836761339
18.13929772377014,-560.5724375497792,3608.720261885731,-428.033836761339
18.158027410507202,-560.5724375497792,3608.7319016981005,-428.033836761339
18.176759004592896,-560.5724375497792,3608.738938386392,-428.033836761339
18.195495128631592,-560.5724375497792,3608.740357462073,-428.0338367613389
18.214205265045166,-560.5724375497792,3608.7357617546368,-428.0338367613389
18.23292350769043,-560.5724375497792,3608.725659631644,-428.0338367613389
18.251628398895264,-560.5724375497792,3608.711827870061,-428.0338367613389
18.270360708236694,-560.5724375497792,3608.7171864037578,-428.0338367613389
18.289088010787964,-560.5724375497792,3608.7216329337957,-428.033836761339
18.307818174362183,-560.5724375497792,3608.7248952370437,-428.033836761339
18.32653307914734,-560.5724375497792,3608.726842326324,-428.033836761339
18.345260620117188,-560.5724375497792,3608.7275003703835,-428.033836761339
18.36399817466736,-560.5724375497792,3608.727060237611,-428.0338367613389
18.382715463638306,-560.5724375497792,3608.725872422733,-428.0338367613389
18.401467084884644,-560.5724375497792,3608.724423918799,-428.0338367613389
18.42018485069275,-560.5724375497792,3608.7232901352154,-428.0338367613389
18.43897795677185,-560.5724375497792,3608.7230531855726,-428.0338367613389
18.45771551132202,-560.5724375497792,3608.7241757171237,-428.033836761339
18.476463317871094,-560.5724375497792,3608.7248746484597,-428.033836761339
18.495218753814697,-560.5724375497792,3608.7251988199264,-428.033836761339
18.513953924179077,-560.5724375497792,3608.7252291782147,-428.033836761339
18.53267192840576,-560.5724375497792,3608.7250678634036,-428.0338367613389
18.551414728164673,-560.5724375497792,3608.7248246127056,-428.0338367613389
18.5702006816864,-560.5724375497792,3608.7246010502154,-428.0338367613389
18.58891749382019,-560.5724375497792,3608.7244739129637,-428.0338367613389
18.6076500415802,-560.5724375497792,3608.7244789123797,-428.0338367613389
18.626380920410156,-560.5724375497792,3608.7245977900966,-428.033836761339
18.645106077194214,-560.5724375497792,3608.7247522505495,-428.033836761339
18.66383934020996,-560.5724375497792,3608.7248099038916,-428.033836761339
18.68253779411316,-560.5724375497792,3608.7248034294344,-428.033836761339
18.70126485824585,-560.5724375497792,3608.724763890385,-428.0338367613389
18.720017671585083,-560.5724375497792,3608.7247173616024,-428.0338367613389
18.73875403404236,-560.5724375497792,3608.724682311423,-428.0338367613389
18.75748085975647,-560.5724375497792,3608.7246680812946,-428.0338367613389
18.77620530128479,-560.5724375497792,3608.7246747844024,-428.0338367613389
18.794966220855713,-560.5724375497792,3608.724694871546,-428.033836761339
18.813743829727173,-560.5724375497792,3608.7247164674627,-428.033836761339
18.832464933395386,-560.5724375497792,3608.7247283351994,-428.033836761339
18.851227283477783,-560.5724375497792,3608.724725943664,-428.033836761339
18.869966983795166,-560.5724375497792,3608.724717547642,-428.0338367613389
18.88870930671692,-560.5724375497792,3608.7247089594625,-428.0338367613389
18.90746259689331,-560.5724375497792,3608.7247034663696,-428.0338367613389
18.92618441581726,-560.5724375497792,3608.724702076847,-428.0338367613389
18.944907903671265,-560.5724375497792,3608.724704053389,-428.0338367613389
18.96364116668701,-560.5724375497792,3608.7247076505982,-428.033836761339
18.982394695281982,-560.5724375497792,3608.7247109372183,-428.033836761339
19.001095294952393,-560.5724375497792,3608.7247125437852,-428.033836761339
19.019851207733154,-560.5724375497792,3608.724712151418,-428.033836761339
19.038553714752197,-560.5724375497792,3608.72471053304,-428.0338367613389
19.05728006362915,-560.5724375497792,3608.7247089919774,-428.0338367613389
19.07600450515747,-560.5724375497792,3608.7247081364103,-428.0338367613389
19.094724416732788,-560.5724375497792,3608.7247080541056,-428.0338367613389
19.11350679397583,-560.5724375497792,3608.7247085128793,-428.0338367613389
19.132230520248413,-560.5724375497792,3608.7247091564823,-428.033836761339
19.150977849960327,-560.5724375497792,3608.724709666791,-428.033836761339
19.169679403305054,-560.5724375497792,3608.7247098684106,-428.033836761339
19.188387632369995,-560.5724375497792,3608.7247097615304,-428.033836761339
19.207164764404297,-560.5724375497792,3608.7247094833047,-428.0338367613389
19.225914001464844,-560.5724375497792,3608.724709216493,-428.0338367613389
19.244921684265137,-560.5724375497792,3608.724709084838,-428.0338367613389
19.263681173324585,-560.5724375497792,3608.7247090941246,-428.0338367613389
19.282419443130493,-560.5724375497792,3608.724709189896,-428.0338367613389
19.30113387107849,-560.5724375497792,3608.724709303475,-428.033836761339
19.31984829902649,-560.5724375497792,3608.7247093825354,-428.033836761339
19.33859157562256,-560.5724375497792,3608.7247094051404,-428.033836761339
19.357388734817505,-560.5724375497792,3608.7247093789747,-428.033836761339
19.376102924346924,-560.5724375497792,3608.724709330031,-428.0338367613389
19.394811391830444,-560.5724375497792,3608.724709286881,-428.0338367613389
19.41355609893799,-560.5724375497792,3608.724709267239,-428.0338367613389
19.432311296463013,-560.5724375497792,3608.724709272314,-428.0338367613389
19.45108437538147,-560.5724375497792,3608.724709291061,-428.0338367613389
19.469802141189575,-560.5724375497792,3608.7247093107553,-428.033836761339
19.488526105880737,-560.5724375497792,3608.724709322841,-428.033836761339
19.507288932800293,-560.5724375497792,3608.724709324778,-428.033836761339
19.526074409484863,-560.5724375497792,3608.7247093190017,-428.033836761339
19.544784545898438,-560.5724375497792,3608.724709310388,-428.0338367613389
19.56377363204956,-560.5724375497792,3608.7247093035285,-428.0338367613389
19.58253526687622,-560.5724375497792,3608.7247093008787,-428.0338367613389
19.601253271102905,-560.5724375497792,3608.724709302279,-428.0338367613389
19.619960069656372,-560.5724375497792,3608.7247093057827,-428.0338367613389
19.638700008392334,-560.5724375497792,3608.724709309129,-428.033836761339
19.657472133636475,-560.5724375497792,3608.7247093109354,-428.033836761339
19.67620611190796,-560.5724375497792,3608.7247093109536,-428.033836761339
19.6949725151062,-560.5724375497792,3608.724709309765,-428.033836761339
19.71369743347168,-560.5724375497792,3608.7247093082638,-428.0338367613389
19.732444286346436,-560.5724375497792,3608.7247093071906,-428.0338367613389
19.751197576522827,-560.5724375497792,3608.7247093068704,-428.0338367613389
19.769911289215088,-560.5724375497792,3608.7247093072046,-428.0338367613389
19.788637161254883,-560.5724375497792,3608.7247093078377,-428.0338367613389
19.807415008544922,-560.5724375497792,3608.7247093083924,-428.033836761339
19.82615065574646,-560.5724375497792,3608.724709308654,-428.033836761339
19.84491801261902,-560.5724375497792,3608.7247093086066,-428.033836761339
19.863670587539673,-560.5724375497792,3608.724709308374,-428.033836761339
19.8823823928833,-560.5724375497792,3608.724709308116,-428.0338367613389
19.901089906692505,-560.5724375497792,3608.724709307951,-428.0338367613389
19.919790744781494,-560.5724375497792,3608.7247093079204,-428.0338367613389
19.93853497505188,-560.5724375497792,3608.724709307993,-428.0338367613389
19.957263231277466,-560.5724375497792,3607.2522383773057,-428.0338367613389
19.97598433494568,-560.5724375497792,3607.1049912843155,-428.033836761339
19.99472975730896,-560.5724375497792,3606.943019481964,-428.033836761339
20.01353096961975,-560.5724375497792,3606.764850499321,-428.033836761339
20.032240390777588,-560.5724375497792,3606.568864618388,-428.033836761339
20.051045894622803,-560.5724375497792,3606.353280149365,-428.0338367613389
20.069769144058228,-560.5724375497792,3606.1161372334645,-428.0338367613389
20.088489294052124,-560.5724375497792,3605.855280025999,-428.0338367613389
20.107255697250366,-560.5724375497792,3605.568337097804,-428.0338367613389
20.125993967056274,-560.5724375497792,3605.2526998767926,-428.0338367613389
20.144735097885132,-560.5724375497792,3606.377969864472,-428.033836761339
20.16347026824951,-560.5724375497792,3606.290543013188,-428.033836761339
20.182188987731934,-560.5724375497792,3606.209098186076,-428.033836761339
20.200928926467896,-560.5724375497792,3606.135706056487,-428.033836761339
20.219658136367798,-560.5724375497792,3606.0727916122037,-428.0338367613389
20.238364219665527,-560.5724375497792,3606.023184311585,-428.0338367613389
20.257108688354492,-560.5724375497792,3605.990174727807,-428.0338367613389
20.275851249694824,-560.5724375497792,3605.9775784772414,-428.0338367613389
20.29457402229309,-560.5724375497792,3605.9898083223657,-428.0338367613389
20.313309907913208,-560.5724375497792,3606.0319554448215,-428.033836761339
20.332029581069946,-560.5724375497792,3606.109881001625,-428.033836761339
20.350754976272583,-560.5724375497792,3606.0830721153397,-428.033836761339
20.369465112686157,-560.5724375497792,3606.062325025555,-428.033836761339
20.3881733417511,-560.5724375497792,3606.0476477095035,-428.0338367613389
20.406898736953735,-560.5724375497792,3606.0388418748053,-428.0338367613389
20.425637006759644,-560.5724375497792,3606.035446901065,-428.0338367613389
20.444364547729492,-560.5724375497792,3606.036673160013,-428.0338367613389
20.463186502456665,-560.5724375497792,3606.041323003233,-428.0338367613389
20.48191547393799,-560.5724375497792,3606.0476974558323,-428.033836761339
20.50063133239746,-560.5724375497792,3606.0534863691782,-428.033836761339
20.519356727600098,-560.5724375497792,3606.055639461614,-428.033836761339
20.538055658340454,-560.5724375497792,3606.0502153076136,-428.033836761339
20.556867361068726,-560.5724375497792,3606.046929626841,-428.0338367613389
20.575592041015625,-560.5724375497792,3606.0453900869697,-428.0338367613389
20.594294786453247,-560.5724375497792,3606.0451643247166,-428.0338367613389
20.613008975982666,-560.5724375497792,3606.0457965697074,-428.0338367613389
20.631739854812622,-560.5724375497792,3606.0468315365715,-428.0338367613389
20.65045976638794,-560.5724375497792,3606.0478473742273,-428.033836761339
20.669214010238647,-560.5724375497792,3606.048499811327,-428.033836761339
20.68794059753418,-560.5724375497792,3606.0485800468764,-428.033836761339
20.706658124923706,-560.5724375497792,3606.0480894146467,-428.033836761339
20.72542428970337,-560.5724375497792,3606.0473344099496,-428.0338367613389
20.744144916534424,-560.5724375497792,3606.047046320183,-428.0338367613389
20.76290488243103,-560.5724375497792,3606.0470579895177,-428.0338367613389
20.781630039215088,-560.5724375497792,3606.047224779772,-428.0338367613389
20.800341367721558,-560.5724375497792,3606.047430825278,-428.0338367613389
20.81909966468811,-560.5724375497792,3606.0475942508347,-428.033836761339
20.837827920913696,-560.5724375497792,3606.047670522261,-428.033836761339
20.85655117034912,-560.5724375497792,3606.047652837065,-428.033836761339
20.875338077545166,-560.5724375497792,3606.047568139639,-428.033836761339
20.89406657218933,-560.5724375497792,3606.0474669489145,-428.0338367613389
20.912795782089233,-560.5724375497792,3606.047404702341,-428.0338367613389
20.931524991989136,-560.5724375497792,3606.0474117315803,-428.0338367613389
20.950246334075928,-560.5724375497792,3606.04744827272,-428.0338367613389
20.969006776809692,-560.5724375497792,3606.0474873010403,-428.0338367613389
20.987778186798096,-560.5724375497792,3606.047513553168,-428.033836761339
21.006492614746094,-560.5724375497792,3606.047521825956,-428.033836761339
21.025216579437256,-560.5724375497792,3606.047514583468,-428.033836761339
21.044003009796143,-560.5724375497792,3606.0474989895883,-428.033836761339
21.062720775604248,-560.5724375497792,3606.0474836048415,-428.0338367613389
21.081496953964233,-560.5724375497792,3606.047475151362,-428.0338367613389
21.100210189819336,-560.5724375497792,3606.0474759716067,-428.0338367613389
21.118910312652588,-560.5724375497792,3606.047483098533,-428.0338367613389
21.13764214515686,-560.5724375497792,3606.047490235228,-428.0338367613389
21.15637469291687,-560.5724375497792,3606.0474944314788,-428.033836761339
21.1751492023468,-560.5724375497792,3606.0474951445226,-428.033836761339
21.193915605545044,-560.5724375497792,3606.047493303658,-428.033836761339
21.21264934539795,-560.5724375497792,3606.047490451428,-428.033836761339
21.231366634368896,-560.5724375497792,3606.0474880382244,-428.0338367613389
21.250063180923462,-560.5724375497792,3606.047486943088,-427.13045308520503
21.269079446792603,-560.5724375497792,3606.0474872769128,-427.0401147175917
21.28791069984436,-560.5724375497792,3606.0474884894675,-426.9407425132169
21.306641101837158,-560.5724375497792,3606.047489741254,-426.8314330884047
21.32536792755127,-560.5724375497792,3606.0474904055263,-426.7111927211113
21.344096660614014,-560.5724375497792,3606.0474904225557,-426.5789283170885
21.3628146648407,-560.5724375497792,3606.0474900216636,-426.43343747266346
21.381579160690308,-560.5724375497792,3606.047489509378,-426.2733975437959
21.400322675704956,-560.5724375497792,3606.04748912995,-426.0973536220416
21.41910433769226,-560.5724375497792,3606.0474889978022,-425.90370530811185
21.43784475326538,-560.5724375497792,3606.04748909376,-426.5940758389232
21.456549882888794,-560.5724375497792,3606.047489308827,-426.54043811429494
21.475273609161377,-560.5724375497792,3606.0474895120183,-426.49047045396526
21.494025230407715,-560.5724375497792,3606.047489614273,-426.4454432480401
21.51280665397644,-560.5724375497792,3606.0474896015753,-426.40684426400367
21.531865119934082,-560.5724375497792,3606.04748952118,-426.37640941829284
21.550621509552002,-560.5724375497792,3606.047489431043,-426.3561575284133
21.569339275360107,-560.5724375497792,3606.047489371981,-426.3484295339883
21.588078022003174,-560.5724375497792,3606.047489358241,-426.35593273300753
21.60679292678833,-560.5724375497792,3606.04748938107,-426.38179064410417
21.62548542022705,-560.5724375497792,3606.0474894193967,-426.4295991777034
21.64419198036194,-560.5724375497792,3606.0474894519602,-426.4131515115813
21.662968397140503,-560.5724375497792,3606.047489466274,-426.40042285130994
21.681697368621826,-560.5724375497792,3606.047489461699,-426.3914180910444
21.70048999786377,-560.5724375497792,3606.0474894464423,-426.3860155753449
21.71928310394287,-560.5724375497792,3606.0474894309286,-426.383932706479
21.73804497718811,-560.5724375497792,3606.0474894219033,-426.38468503529765
21.756798267364502,-560.5724375497792,3606.0474894209897,-426.387537785986
21.775521755218506,-560.5724375497792,3606.0474894258905,-426.39144861118587
21.794270038604736,-560.5724375497792,3606.0474894326558,-426.3950001990036
21.812999725341797,-560.5724375497792,3606.0474894378144,-426.3963211544936
21.8317449092865,-560.5724375497792,3606.047489439656,-426.39299335217254
21.850464344024658,-560.5724375497792,3606.047489438425,-426.39097753623173
21.869195222854614,-560.5724375497792,3606.0474894356403,-426.39003300472393
21.888003826141357,-560.5724375497792,3606.047489433034,-426.38989449609187
21.906768798828125,-560.5724375497792,3606.047489431694,-426.3902823881666
21.92552089691162,-560.5724375497792,3606.0474894317704,-426.39091735633536
21.944245100021362,-560.5724375497792,3606.047489432757,-426.39154058843917
21.96300768852234,-560.5724375497792,3606.0474894339336,-426.39194086868446
21.98173236846924,-560.5724375497792,3606.047489434738,-426.3919900944343
22.000475883483887,-560.5724375497792,3606.0474894349463,-426.3916890839773
22.019272804260254,-560.5724375497792,3606.04748943466,-426.39122587692566
22.037984132766724,-560.5724375497792,3606.0474894341596,-426.39104912940104
22.05669617652893,-560.5724375497792,3606.0474894337335,-426.39105628871795
22.07537817955017,-560.5724375497792,3606.047489433543,-426.39115861711736
22.09410810470581,-560.5724375497792,3606.047489433594,-426.39128502921983
22.11286735534668,-560.5724375497792,3606.0474894337835,-426.39138529332524
22.131600379943848,-560.5724375497792,3606.047489433985,-426.39143208702427
22.150346755981445,-560.5724375497792,3606.0474894341073,-426.3914212368828
22.169069290161133,-560.5724375497792,3606.047489434125,-426.39136927370265
22.18779182434082,-560.5724375497792,3606.0474894340637,-426.3913071916294
22.206520557403564,-560.5724375497792,3606.047489433975,-426.3912690023946
22.225247621536255,-560.5724375497792,3606.047489433907,-426.39127331494154
22.24395442008972,-560.5724375497792,3606.0474894338813,-426.39129573349555
22.262672662734985,-560.5724375497792,3606.0474894338963,-426.3913196779733
22.281388998031616,-560.5724375497792,3606.0474894339313,-426.3913357840589
22.30012583732605,-560.5724375497792,3606.0474894339654,-426.39134085954277
22.318962335586548,-560.5724375497792,3606.0474894339836,-426.39133641616456
22.337695360183716,-560.5724375497792,3606.047489433983,-426.3913268490786
22.356417179107666,-560.5724375497792,3606.0474894339704,-426.39131741029814
22.3751859664917,-560.5724375497792,3606.0474894339554,-426.3913122239577
22.393909692764282,-560.5724375497792,3606.0474894339445,-426.3913127271906
22.41269040107727,-560.5724375497792,3606.0474894339413,-426.3913170996701
22.431411504745483,-560.5724375497792,3606.047489433945,-426.3913214781431
22.450149536132812,-560.5724375497792,3606.0474894339523,-426.3913240526078
22.468884706497192,-560.5724375497792,3606.0474894339577,-426.39132449007127
22.48760986328125,-560.5724375497792,3606.0474894339604,-426.3913233606725
22.5063316822052,-560.5724375497792,3606.0474894339595,-426.3913216107855
22.525076389312744,-560.5724375497792,3605.0427404905613,-426.39132013024755
22.543798208236694,-560.5724375497792,3604.942265596219,-426.3913194583644
22.562500715255737,-560.5724375497792,3604.8317432124436,-426.3913196631711
22.581204414367676,-560.5724375497792,3604.7101685902926,-426.3913204070924
22.59998631477356,-560.5724375497792,3604.5764365059267,-426.3913211750826
22.61872124671936,-560.5724375497792,3604.429331213126,-426.39132158262385
22.63743782043457,-560.5724375497792,3604.2675153910436,-426.3913215930719
22.65618896484375,-560.5724375497792,3604.0895179867525,-426.39132134711826
22.67489767074585,-560.5724375497792,3603.893720842032,-426.391321032823
22.693647146224976,-560.5724375497792,3603.4889718986365,-426.3913208000381
22.712367057800293,-560.5724375497792,3604.2378690885002,-426.3913207189633
22.731151819229126,-560.5724375497792,3604.1573819482937,-426.3913207778349
22.74985647201538,-560.5724375497792,3604.0788935835017,-426.39132090978194
22.768571615219116,-560.5724375497792,3597.8957192622574,-426.3913210344431
22.787286043167114,-560.5724375497792,3597.2142743294544,-426.3913210971781
22.80603313446045,-560.5724375497792,3596.4780581118066,-426.39132108938765
22.82478904724121,-560.5724375497792,3595.682930801675,-426.39132104006404
22.843527793884277,-560.5724375497792,3594.824472342737,-426.3913209847632
22.862244129180908,-560.5724375497792,3593.8979677783364,-426.3913209485278
22.880945920944214,-560.5724375497792,3593.0877645561695,-426.3913209400982
22.899646282196045,-560.5724375497792,3592.047643821923,-426.39132095410423
22.918348789215088,-560.5724375497792,3590.8286212952653,-426.3913209776183
22.937093496322632,-560.5724375497792,3589.4957452299627,-426.3913209975966
22.955827474594116,-560.5724375497792,3594.145319752959,-426.39132100637806
22.97456455230713,-560.5724375497792,3593.770279802029,-426.39132100357153
22.993286848068237,-560.5724375497792,3593.425880349286,-426.39132099421096
23.01204252243042,-560.5724375497792,3593.1206625730347,-426.3913209846934
23.030821084976196,-560.5724375497792,3592.8644357501703,-426.39132097915626
23.04956364631653,-560.5724375497792,3592.668432090914,-426.39132097859545
23.068405628204346,-560.5724375497792,3592.545478522171,-426.39132098160223
23.087244749069214,-560.5724375497792,3592.4912499187712,-426.3913209857527
23.105994939804077,-560.5724375497792,3592.5356105284563,-426.3913209889176
23.124727964401245,-560.5724375497792,3592.7063094517753,-426.3913209900476
23.14348077774048,-560.5724375497792,3593.027365873956,-426.3913209892926
23.162195205688477,-560.5724375497792,3592.915570486056,-426.391320987584
23.180928468704224,-560.5724375497792,3592.8300995544587,-426.3913209859853
23.199663162231445,-560.5724375497792,3592.770521474976,-426.39132098516274
23.21837878227234,-560.5724375497792,3592.7355073651706,-426.3913209852096
23.237163066864014,-560.5724375497792,3592.722614526671,-426.39132098581496
23.255924940109253,-560.5724375497792,3592.7280327702465,-426.3913209865369
23.275041818618774,-560.5724375497792,3592.7462881950546,-426.3913209870304
23.293813467025757,-560.5724375497792,3592.7717920226823,-426.3913209871581
23.31254267692566,-560.5724375497792,3592.795410172105,-426.3913209869822
23.33127450942993,-560.5724375497792,3592.804320244138,-426.3913209866757
23.35006809234619,-560.5724375497792,3592.7820156811563,-426.3913209864139
23.368784427642822,-560.5724375497792,3592.768660200666,-426.3913209862969
23.38749885559082,-560.5724375497792,3592.7625162652866,-426.3913209863281
23.4062602519989,-560.5724375497792,3592.7617157443174,-426.3913209864446
23.42500591278076,-560.5724375497792,3592.7643365822323,-426.3913209865682
23.44375205039978,-560.5724375497792,3592.7685087877885,-426.3913209866435
23.462491512298584,-560.5724375497792,3592.772556389543,-426.39132098665414
23.48122215270996,-560.5724375497792,3592.775183208991,-426.3913209866165
23.500277519226074,-560.5724375497792,3592.7755223276226,-426.3913209865624
23.519120931625366,-560.5724375497792,3592.7735335431744,-426.39132098652044
23.5378577709198,-560.5724375497792,3592.7704548730776,-426.3913209865048
23.55663776397705,-560.5724375497792,3592.76929879227,-426.39132098651396
23.57540464401245,-560.5724375497792,3592.76936265143,-426.3913209865356
23.594205141067505,-560.5724375497792,3592.7700472900447,-420.4521888879029
23.612911224365234,-560.5724375497792,3592.770880444618,-425.51305678925837
23.63162326812744,-560.5724375497792,3592.7715348308557,-425.4252303695274
23.65042495727539,-560.5724375497792,3592.771837435163,-424.78609827086314
23.669153690338135,-560.5724375497792,3592.7717655397246,-424.62557599928397
23.687883853912354,-560.5724375497792,3592.7714237727982,-424.4490015005507
23.70666766166687,-560.5724375497792,3592.7710139173155,-419.1098694018945
23.725421905517578,-560.5724375497792,3592.77076195473,-418.3817242434319
23.744147777557373,-560.5724375497792,3592.770792662895,-417.5807645691246
23.76290011405945,-560.5724375497792,3592.7709420499573,-416.69970892738564
23.781627893447876,-560.5724375497792,3592.7710999898104,-421.6696798201243
23.80034041404724,-560.5724375497792,3592.7712052597863,-416.1366478021367
23.819153308868408,-560.5724375497792,3592.771237741303,-415.19900690342445
23.837892293930054,-560.5724375497792,3592.771208032348,-414.7189075937669
23.85671043395996,-560.5724375497792,3592.7711450920665,-413.71218852605733
23.875479459762573,-560.5724375497792,3592.7710830473015,-412.6208497787346
23.89420223236084,-560.5724375497792,3592.7710489747515,-416.5829347566081
23.91293692588806,-560.5724375497792,3592.7710524804947,-416.33024129207945
23.93166470527649,-560.5724375497792,3592.771081533071,-416.1250929969442
23.950417041778564,-560.5724375497792,3592.7711104200885,-415.9795258397262
23.969159841537476,-560.5724375497792,3592.771127257102,-415.9075075309603
23.987887859344482,-560.5724375497792,3592.7711299838315,-415.33129030204384
24.00661015510559,-560.5724375497792,3592.7711224562363,-415.2507545520345
24.025334358215332,-560.5724375497792,3592.771110927729,-415.2559293168955
24.044365406036377,-560.5724375497792,3592.771101217267,-415.30963148920836
24.06321120262146,-560.5724375497792,3592.771096829788,-415.46937578552354
24.081947326660156,-560.5724375497792,3592.771098208036,-415.7542283862023
24.100700616836548,-560.5724375497792,3592.7711031313643,-415.67135774916176
24.119419813156128,-560.5724375497792,3592.7711081964508,-415.60546939486994
24.138176441192627,-560.5724375497792,3592.771110862789,-415.55350703466263
24.156917810440063,-560.5724375497792,3592.7711109070597,-415.51090515415626
24.175665140151978,-560.5724375497792,3592.771109272055,-415.47124491647594
24.194411754608154,-560.5724375497792,3592.7711072008774,-415.4852403779191
24.21321392059326,-560.5724375497792,3592.771105675341,-415.5086889605075
24.232004642486572,-560.5724375497792,3592.771105150103,-415.5339649248687
24.25073766708374,-560.5724375497792,3592.7711055433865,-415.5563982684348
24.269524335861206,-560.5724375497792,3592.7711064147456,-415.5651005167259
24.28825306892395,-560.5724375497792,3592.771107235417,-415.5461877297783
24.307000875473022,-560.5724375497792,3592.7711076458218,-415.53367072783993
24.32572603225708,-560.5724375497792,3592.7711075907596,-415.52649086113695
24.34445834159851,-560.5724375497792,3592.7711072635566,-415.52378924378434
24.363243341445923,-560.5724375497792,3592.7711068992066,-415.5250776527472
24.38209891319275,-560.5724375497792,3592.7711066619217,-415.5304609263743
24.4008629322052,-560.5724375497792,3592.7711066080265,-415.53498298121985
24.41958999633789,-560.5724375497792,3592.7711067012947,-415.53761238329105
24.43830943107605,-560.5724375497792,3592.771106856414,-415.5379771291333
24.457030534744263,-560.5724375497792,3592.7711069877164,-415.53613501520323
24.475783109664917,-560.5724375497792,3592.771107045013,-415.5332384650509
24.494510173797607,-560.5724375497792,3592.771107025973,-415.53194353857816
24.513264894485474,-560.5724375497792,3592.771106963988,-415.53177081965197
24.531983613967896,-560.5724375497792,3592.7711069013108,-415.5322988155034
24.55070161819458,-560.5724375497792,3592.771106865086,-415.53314977267536
24.569414377212524,-560.5724375497792,3592.7711068616745,-415.5339569846682
24.588186264038086,-560.5724375497792,3592.7711068816498,-415.5343065904975
24.60700750350952,-560.5724375497792,3592.771106909012,-415.5342389514253
24.625763416290283,-560.5724375497792,3592.771106929784,-415.53390160823875
24.64449381828308,-560.5724375497792,3592.7711069371203,-415.53349405614927
24.66326403617859,-560.5724375497792,3592.7711069320603,-415.5332299602439
24.68208384513855,-560.5724375497792,3592.771106920766,-415.5332291097632
24.70086669921875,-560.5724375497792,3592.7711069102456,-415.53335766688167
24.71959662437439,-560.5724375497792,3592.771106904871,-415.5335163516047
24.738323211669922,-560.5724375497792,3592.7711069052266,-415.5336381052148
24.757057905197144,-560.5724375497792,3592.771106909241,-415.5336869384688
24.77578115463257,-560.5724375497792,3592.7711069139973,-415.53365993384887
24.794519424438477,-560.5724375497792,3592.771106917232,-415.53359526818394
24.813220977783203,-560.5724375497792,3592.771106918054,-415.5335308998598
24.831937789916992,-560.5724375497792,3592.7711069168813,-415.5334938290219
24.850685834884644,-560.5724375497792,3592.771106914858,-415.53349380630914
24.86941695213318,-560.5724375497792,3592.7711069131374,-415.53352019091574
24.8881516456604,-560.5724375497792,3592.7711069123748,-415.533549299031
24.906872034072876,-560.5724375497792,3592.771106912587,-415.53356846224585
24.925621032714844,-560.5724375497792,3592.7711069133584,-415.53357367331
24.944332361221313,-560.5724375497792,3592.771106914172,-415.5335672301195
24.963099718093872,-560.5724375497792,3592.7711069146653,-415.5335552592845
24.981849431991577,-560.5724375497792,3592.771106914732,-415.53354479182815
25.0006160736084,-560.5724375497792,3592.7711069144816,-415.5335397441926
25.019352197647095,-560.5724375497792,3592.771106914125,-415.5335406286258
25.038086891174316,-560.5724375497792,3592.7711069138495,-415.5335453085862
25.056809186935425,-560.5724375497792,3592.7711069137486,-415.533550458814
25.075621128082275,-560.5724375497792,3592.7711069138095,-415.5335534856038
25.094377279281616,-560.5724375497792,3592.7711069139536,-415.53355390426105
25.11312484741211,-560.5724375497792,3592.7711069140896,-415.5335524484626
25.131842613220215,-560.5724375497792,3592.7711069141633,-415.5335503259779
25.150529623031616,-560.5724375497792,3592.7711069141624,-415.5335486355637
25.16924262046814,-560.5724375497792,3592.7711069141114,-415.5335479731916
25.18796730041504,-560.5724375497792,3592.7711069140496,-415.53354829132803
25.20676040649414,-560.5724375497792,3592.771106914006,-415.53354914604154
25.225510597229004,-560.5724375497792,3592.771106913994,-415.53354999778304
25.244228839874268,-560.5724375497792,3592.7711069140087,-415.53355046670265
25.262991905212402,-560.5724375497792,3592.771106914035,-415.5335504674916
25.282015800476074,-560.5724375497792,3592.771106914058,-415.5335501656803
25.30093502998352,-560.5724375497792,3592.771106914068,-415.53354979182234
25.319689750671387,-560.5724375497792,3592.7711069140655,-415.53354952615837
25.338420867919922,-560.5724375497792,3592.771106914056,-415.5335494461764
25.357128858566284,-560.5724375497792,3592.771106914045,-415.5335495272376
25.375841856002808,-560.5724375497792,3592.7711069140387,-415.5335496826422
25.394540786743164,-560.5724375497792,3592.771106914038,-415.5335498217736
25.41330122947693,-560.5724375497792,3592.771106914041,-415.5335498893468
25.432023286819458,-560.5724375497792,3592.771106914045,-415.53354987850315
25.450731992721558,-560.5724375497792,3592.7711069140487,-415.53354981968323
25.46976327896118,-560.5724375497792,3592.7711069140505,-415.53354975490237
25.488518476486206,-560.5724375497792,3592.7711069140505,-415.5335497138246
25.50728154182434,-560.5724375497792,3592.7711069140482,-415.53354970602476
25.526025772094727,-560.5724375497792,3592.771106914046,-415.5335497240114
25.54473352432251,-560.5724375497792,3592.771106914045,-415.5335497517949
25.563469886779785,-560.5724375497792,3592.771106914045,-415.5335497742506
25.58218741416931,-560.5724375497792,3592.771106914046,-415.5335497834115
25.600931406021118,-560.5724375497792,3592.771106914047,-415.5335497795753
25.61966109275818,-560.5724375497792,3592.7711069140473,-415.53354976859816
25.63837242126465,-560.5724375497792,3592.7711069140473,-415.5335497576078
25.657084941864014,-560.5724375497792,3592.7711069140473,-415.5335497514002
25.675825595855713,-560.5724375497792,3592.771106914047,-415.5335497510499
25.694545030593872,-560.5724375497792,3592.771106914046,-415.5335497547725
25.713242530822754,-560.5724375497792,3592.771106914046,-415.5335497596472
25.731971263885498,-560.5724375497792,3592.771106914046,-415.5335497632109
25.750742435455322,-560.5724375497792,3592.771106914047,-415.5335497643524
25.76950764656067,-560.5724375497792,3592.771106914047,-415.5335497633626
25.788212537765503,-560.5724375497792,3592.771106914047,-415.5335497613577
25.806949138641357,-560.5724375497792,3592.771106914047,-415.5335497595359
25.825713872909546,-560.5724375497792,3592.771106914047,-415.53354975862965
25.844428062438965,-560.5724375497792,3592.771106914047,-415.5335497587319
25.86316156387329,-560.5724375497792,3592.771106914046,-415.53354975946513
25.88187861442566,-560.5724375497792,3592.771106914046,-415.5335497603066
25.90058445930481,-560.5724375497792,3592.771106914046,-415.53354976086
25.919289588928223,-560.5724375497792,3592.771106914047,-415.5335497609814
25.938037157058716,-560.5724375497792,3592.771106914047,-415.5335497607583
25.956798315048218,-560.5724375497792,3592.771106914047,-415.5335497603989
25.97553515434265,-560.5724375497792,3592.771106914047,-415.5335497601025
25.994256019592285,-560.5724375497792,3592.771106914047,-415.533549759977
26.01297163963318,-560.5724375497792,3592.771106914047,-415.5335497600211
26.031740188598633,-560.5724375497792,3592.771106914046,-415.5335497601603
26.050456285476685,-560.5724375497792,3592.771106914046,-415.5335497603031
26.069165468215942,-560.5724375497792,3592.771106914046,-415.533549760387
26.087871074676514,-560.5724375497792,3592.771106914047,-415.533549760395
26.106599807739258,-560.5724375497792,3592.771106914047,-415.53354976034854
26.125385999679565,-560.5724375497792,3592.771106914047,-415.5335497602852
26.144115209579468,-560.5724375497792,3592.771106914047,-415.5335497602379
26.162854433059692,-560.5724375497792,3592.771106914047,-415.53354976022183
26.181583642959595,-560.5724375497792,3592.771106914047,-415.53354976023365
26.200308322906494,-560.5724375497792,3592.771106914046,-415.5335497602593
26.219048738479614,-560.5724375497792,3592.771106914046,-415.5335497602832
26.237780332565308,-560.5724375497792,3592.771106914046,-415.5335497602955
26.25649070739746,-560.5724375497792,3592.771106914047,-415.5335497602947
26.27527356147766,-560.5724375497792,3592.771106914047,-415.5335497602855
26.294026136398315,-560.5724375497792,3592.771106914047,-415.5335497602746
26.31276297569275,-560.5724375497792,3592.771106914047,-415.53354976026714
26.331517934799194,-560.5724375497792,3592.771106914047,-415.5335497602653
26.350228309631348,-560.5724375497792,3592.771106914047,-415.5335497602681
26.368972063064575,-560.5724375497792,3592.771106914046,-415.53354976027276
26.38768768310547,-560.5724375497792,3592.771106914046,-415.5335497602767
26.406424522399902,-560.5724375497792,3592.771106914046,-415.5335497602784
26.42517399787903,-560.5724375497792,3592.771106914047,-415.53354976027794
26.443991661071777,-560.5724375497792,3592.771106914047,-415.5335497602761
26.462719440460205,-560.5724375497792,3592.771106914047,-415.53354976027424
26.481447219848633,-560.5724375497792,3592.771106914047,-415.5335497602731
26.500189304351807,-560.5724375497792,3592.771106914047,-415.53354976027293
26.518959999084473,-560.5724375497792,3592.771106914047,-415.5335497602735
26.53769612312317,-560.5724375497792,3592.771106914046,-415.5335497602743
26.556448698043823,-560.5724375497792,3592.771106914046,-415.53354976027504
26.575212240219116,-560.5724375497792,3592.771106914046,-415.5335497602752
26.59395408630371,-560.5724375497792,3592.771106914047,-415.53354976027504
26.612655639648438,-560.5724375497792,3592.771106914047,-415.53354976027475
26.63140559196472,-560.5724375497792,3592.771106914047,-415.5335497602744
26.6501407623291,-560.5724375497792,3592.771106914047,-415.53354976027424
26.668928384780884,-560.5724375497792,3592.771106914047,-415.53354976027424
26.68764352798462,-560.5724375497792,3592.771106914047,-415.5335497602744
26.70635962486267,-560.5724375497792,3592.771106914046,-415.53354976027447
26.725067138671875,-560.5724375497792,3592.771106914046,-415.5335497602746
26.743810892105103,-560.5724375497792,3592.771106914046,-415.5335497602747
26.76253080368042,-560.5724375497792,3592.771106914047,-415.5335497602747
26.78126883506775,-560.5724375497792,3592.771106914047,-415.5335497602746
26.80000591278076,-560.5724375497792,3592.771106914047,-415.53354976027447
26.818737983703613,-560.5724375497792,3592.771106914047,-415.5335497602744
26.837514877319336,-560.5724375497792,3592.771106914047,-415.53354976027447
26.856250762939453,-560.5724375497792,3592.771106914047,-415.53354976027447
26.874999523162842,-560.5724375497792,3592.771106914046,-415.5335497602746
26.89372730255127,-560.5724375497792,3592.771106914046,-415.5335497602746
26.912436962127686,-560.5724375497792,3592.771106914046,-415.5335497602746
26.931200981140137,-560.5724375497792,3592.771106914047,-415.5335497602746
26.949939250946045,-560.5724375497792,3592.771106914047,-415.5335497602746
26.96864604949951,-560.5724375497792,3592.771106914047,-415.5335497602746
26.98735284805298,-560.5724375497792,3592.771106914047,-415.5335497602746
27.00613236427307,-560.5724375497792,3592.771106914047,-415.5335497602746
27.02492070198059,-560.5724375497792,3592.771106914047,-415.5335497602746
27.043681621551514,-560.5724375497792,3592.771106914046,-415.5335497602746
27.06239604949951,-560.5724375497792,3592.771106914046,-415.5335497602746
27.081103086471558,-560.5724375497792,3592.771106914046,-415.5335497602746
27.09982466697693,-560.5724375497792,3592.771106914047,-415.5335497602746
27.11854863166809,-560.5724375497792,3592.771106914047,-415.5335497602746
27.13725972175598,-560.5724375497792,3592.771106914047,-415.5335497602746
27.1559898853302,-560.5724375497792,3592.771106914047,-415.5335497602746
27.174707412719727,-560.5724375497792,3592.771106914047,-415.5335497602746
27.19342541694641,-560.5724375497792,3592.771106914047,-415.5335497602746
27.21214461326599,-560.5724375497792,3592.771106914046,-415.5335497602746
27.230859994888306,-560.5724375497792,3592.771106914046,-415.5335497602746
27.249578714370728,-560.5724375497792,3592.771106914046,-415.5335497602746
27.2683207988739,-560.5724375497792,3592.771106914047,-415.5335497602746
27.287368535995483,-560.5724375497792,3592.771106914047,-415.5335497602746
27.306108474731445,-560.5724375497792,3592.771106914047,-415.5335497602746
27.324816942214966,-560.5724375497792,3592.771106914047,-415.5335497602746
27.343579530715942,-556.3151937948013,3592.771106914047,-415.5335497602746
27.36233925819397,-550.3579500398234,3592.771106914047,-415.5335497602746
27.381058931350708,-549.3365012888279,3592.771106914046,-415.5335497602746
27.399799585342407,-548.2129076627327,3592.771106914046,-415.5335497602746
27.418518781661987,-548.3556639077548,3592.771106914046,-415.5335497602746
27.437496185302734,-547.1339865435523,3592.771106914047,-415.5335497602746
27.456284999847412,-545.7901414429296,3592.771106914047,-415.5335497602746
27.475074768066406,-544.3119118322447,3592.771106914047,-415.5335497602746
27.493784427642822,-542.6858592604913,3592.771106914047,-415.5335497602746
27.512492179870605,-540.8972014315624,3592.771106914047,-415.5335497602746
27.531241178512573,-543.1869215747186,3592.771106914047,-415.5335497602746
27.55000877380371,-547.4056137321904,3592.771106914046,-415.5335497602746
27.568758487701416,-547.1103801014272,3592.771106914046,-415.5335497602746
27.587472677230835,-546.8877679826871,3592.771106914046,-415.5335497602746
27.606192111968994,-545.3765447809558,3592.771106914047,-415.5335497602746
27.624919176101685,-545.0786328682759,3592.771106914047,-415.5335497602746
27.643633127212524,-544.8730975007483,3592.771106914047,-415.5335497602746
27.662428379058838,-544.7813931065301,3592.771106914047,-415.5335497602746
27.681174516677856,-544.8283412339587,3592.771106914047,-415.5335497602746
27.69989800453186,-545.0425894313055,3592.771106914047,-415.5335497602746
27.718610048294067,-545.4571282312797,3592.771106914046,-415.5335497602746
27.737338066101074,-545.684148896936,3592.771106914046,-415.5335497602746
27.756059885025024,-545.5120024134105,3592.771106914046,-415.5335497602746
27.77479362487793,-545.3521646446087,3592.771106914047,-415.5335497602746
27.79349637031555,-545.198604310801,3592.771106914047,-415.5335497602746
27.812206029891968,-545.1808102637854,3592.771106914047,-415.5335497602746
27.83096694946289,-545.1910280033363,3592.771106914047,-415.5335497602746
27.84969186782837,-545.2228210535951,3592.771106914047,-412.48019478424715
27.86846923828125,-545.2669638483017,3592.771106914047,-412.1748592866444
27.88723373413086,-545.3108261097359,3592.771106914046,-411.8389902392813
27.905945539474487,-545.337649777579,3592.771106914046,-411.469534287182
27.924659252166748,-545.325701932209,3592.771106914046,-411.0631327398728
27.94345188140869,-545.2898572357361,3592.771106914047,-410.6160910378326
27.96219539642334,-545.2676427179688,3592.771106914047,-410.1243451655884
27.98093056678772,-545.2591905253048,3592.771106914047,-409.58342470611973
27.999679565429688,-545.2652491467552,3592.771106914047,-408.98841220070426
28.018397331237793,-545.2736930350522,3592.771106914047,-408.3338984447472
28.037134408950806,-545.2819595382238,3592.771106914047,-410.667288289222
28.05584979057312,-545.2878733866867,3592.771106914046,-410.4859976397194
28.074610948562622,-545.2899643405251,3592.771106914046,-410.317111475027
28.09333372116089,-545.287878163604,3592.771106914046,-410.1649235986015
28.11204171180725,-545.2829010022066,3592.771106914047,-410.03446252974356
28.13074779510498,-545.2786209092063,3592.771106914047,-409.9315955087306
28.14949607849121,-539.5496351856327,3592.771106914047,-409.86314595582036
28.168216943740845,-541.7228709138359,3592.771106914047,-409.8370260348435
28.18697237968445,-545.4969518613054,3592.771106914047,-409.86238616771595
28.205706119537354,-545.5201221327603,3592.771106914047,-409.9497835644171
28.2244291305542,-545.5447650425311,3592.771106914046,-410.1113720763841
28.24317479133606,-545.5710455929619,3592.771106914046,-410.05578045510026
28.261897087097168,-545.5993628135896,3592.771106914046,-410.0127587366384
28.280616283416748,-545.6303026608958,3592.771106914047,-409.98232346279957
28.299352884292603,-545.664545110625,3592.771106914047,-409.96406344921934
28.318087816238403,-545.7027095214669,3592.771106914047,-409.9570235411669
28.33680295944214,-551.4729804736137,3592.771106914047,-409.9595663444105
28.35555672645569,-549.920278520975,3592.771106914047,-409.9692083832696
28.374292612075806,-546.6123063730726,3597.0939962226416,-409.9824266181122
28.393038272857666,-546.7238418242493,3597.526285153501,-409.9944306631518
28.41178321838379,-546.8442137933982,3598.0018029774465,-409.99889537302533
28.430499792099,-546.9741586684847,3598.524872583786,-409.98764770268934
28.449231147766113,-547.1144699760371,3599.1002491507606,-409.98083442744837
28.46796488761902,-556.9545336946782,3599.7331633744325,-409.9776419965293
28.486760139465332,-558.0869567980563,3600.429369020471,-409.9771738499023
28.505507946014404,-559.3291979667995,3601.195195231113,-409.9784848899705
28.524230003356934,-560.6918468113328,3602.0376040628194,-409.9806310248508
28.542977333068848,-561.6137334451047,3602.964253777697,-409.9827374928949
28.561681747436523,-562.7830789375176,3599.660679155467,-409.9840904038574
28.580402135849,-564.4001561939622,3599.9173474487493,-409.984256782432
28.599206924438477,-566.1677876309334,3600.156453678274,-409.98323939436006
28.617921352386475,-568.100145014687,3600.371918748357,-409.98167379649357
28.63665223121643,-570.2127436493071,3600.556623364814,-409.981076405874
28.655400037765503,-562.8340180142379,3600.70226078622,-409.9811006037165
