Time (s),Gyro X,Gyro Y,Gyro Z
1.0728836059570312e-05,-161.0,-1111.0,278.0
0.01566028594970703,-161.0,-1111.0,278.0
0.031171560287475586,-161.0,-1111.0,269.3333333333333
0.04677724838256836,-161.0,-1111.0,269.3333333333333
0.062278032302856445,-161.0,-1111.0,269.3333333333333
0.07772469520568848,-161.0,-1111.0,269.3333333333333
0.09318089485168457,-161.0,-1111.0,269.3333333333333
0.10862135887145996,-161.0,-1111.0,269.3333333333333
0.12407660484313965,-161.0,-1111.0,269.3333333333333
0.13956975936889648,-161.0,-1111.0,269.33333333333337
0.15507245063781738,-161.0,-1111.0,269.33333333333337
0.17051386833190918,-161.0,-1111.0,269.33333333333337
0.1859743595123291,-161.0,-1111.0,269.33333333333337
0.2014627456665039,-161.0,-1111.0,269.33333333333337
0.21692776679992676,-161.0,-1111.0,269.33333333333337
0.23235869407653809,-161.0,-1111.0,268.7555555555556
0.24782562255859375,-161.0,-1111.0,268.1392592592593
0.2632577419281006,-161.0,-1111.0,269.21520987654327
0.2786879539489746,-161.0,-1111.0,269.2073349794239
0.294219970703125,-161.0,-1111.0,269.1989350891633
0.3096599578857422,-161.0,-1111.0,269.1899752062186
0.3250913619995117,-161.0,-1111.0,269.1804179977443
0.3405647277832031,-161.0,-1112.2,269.17022364203837
0.35602712631225586,-161.0,-1112.28,269.1593496626187
0.37145304679870605,-161.0,-1112.3653333333334,269.14775075123765
0.38689088821411133,-161.0,-1112.4563555555555,269.135378579098
0.40239953994750977,-161.0,-1112.5534459259259,269.12218159548223
0.417896032333374,-161.0,-1112.6570089876545,269.10810481295886
0.43337440490722656,-161.0,-1112.767476253498,269.09308957826727
0.44913291931152344,-161.0,-1112.885308003731,269.0770733279295
0.46457886695861816,-161.0,-1113.0109952039797,269.05998932756927
0.48049497604370117,-161.0,-1113.145061550912,269.0802849123702
0.49609971046447754,-161.0,-1113.2880656543061,269.1430199559109
0.511660099029541,-161.0,-1113.4406033645932,269.13820729453545
0.5271258354187012,-161.0,-1113.6033102555662,268.19105162924046
0.5425841808319092,-161.0,-1113.776864272604,268.123859398579
0.5580196380615234,-161.0,-1113.961988557444,268.052785011403
0.5734705924987793,-161.0,-1112.9594544612735,267.97760947898024
0.5889425277709961,-161.0,-1113.0100847586918,267.89810186810973
0.6044080257415771,-161.0,-1113.058757075938,267.81401868180916
0.6198844909667969,-161.0,-1113.104985325445,267.7251032105139
0.6353461742401123,-161.0,-1113.1482273101042,267.63108485260824
0.6508195400238037,-161.0,-1113.1878794023828,267.5316784030833
0.6663002967834473,-161.0,-1113.2232707633646,267.42658330909165
0.6817610263824463,-161.0,-1113.2536570640225,267.3154828911466
0.6972146034240723,-161.0,-1113.2782136680419,267.19804352869437
0.7126693725585938,-161.0,-1113.2960282323127,267.07391380876936
0.728147029876709,-161.0,-1113.3060926777393,266.94015573519596
0.7436091899871826,-161.0,-1113.3072944793016,266.7932981204816
0.7591228485107422,-161.0,-1113.2984072202821,267.5795179951804
0.7745687961578369,-161.0,-1113.2780803512635,267.53874908624306
0.7900547981262207,-161.0,-1113.2448280898404,267.4997417320874
0.8055086135864258,-161.0,-1113.1970173920004,267.462872180133
0.8209958076477051,-161.0,-1113.2128549207155,267.4285563602098
0.8364555835723877,-161.0,-1113.2263729315168,267.3972533263498
0.8519473075866699,-161.0,-1113.2375473218888,267.3694689693192
0.8674473762512207,-161.0,-1113.2463847883184,267.3457600199063
0.882927417755127,-161.0,-1113.2529286201993,267.32673836439284
0.8983879089355469,-161.0,-1113.2572652347205,267.3130756951468
0.9138467311859131,-161.0,-1113.2595315328108,267.30550852088373
0.9293105602264404,-161.0,-1113.2599231640634,267.30484356286627
0.9447677135467529,-161.0,-1113.2587037971316,267.3119635651444
0.9602267742156982,-161.0,-1113.256215501453,267.32783354890273
0.9756894111633301,-161.0,-1113.2528903563673,267.3536787364832
0.9911580085754395,-161.0,-1113.2492634148382,267.3910374442166
1.0066070556640625,-161.0,-1113.2459871611418,267.37847207415234
1.0220608711242676,-161.0,-1113.2438476151337,267.36778694001293
1.0375428199768066,-161.0,-1113.2437822501531,267.35898995387464
1.0530109405517578,-161.0,-1113.2468999073635,267.35206447212414
1.068469524383545,-161.0,-1113.24916957314,267.3469650129184
1.0839064121246338,-161.0,-1113.2506893492484,267.3436124586897
1.0994079113006592,-161.0,-1113.2515654844058,267.34188869131435
1.114891529083252,-161.0,-1113.2519108641447,267.34163060274153
1.1303558349609375,-161.0,-1113.251843013741,267.34262341863143
1.1457877159118652,-161.0,-1113.2514815323425,267.3445932668638
1.1612746715545654,-161.0,-1113.2509448656447,267.34719891659574
1.1767516136169434,-161.0,-1113.2503463124167,267.3500226068444
1.1922171115875244,-161.0,-1113.249789146769,267.352559876291
1.2076714038848877,-161.0,-1113.2493607231233,267.3542082981169
1.223130702972412,-161.0,-1113.2491254142403,267.35424360222584
1.2385985851287842,-161.0,-1113.2491162142005,267.3517906794264
1.2540762424468994,-161.0,-1113.2493248177377,267.350011919778
1.2695362567901611,-161.0,-1113.249689964578,267.34882691842904
1.2849884033203125,-161.0,-1113.2500838122062,267.3481493827327
1.3004374504089355,-161.0,-1113.2502960725292,267.34788837677326
1.3159101009368896,-161.0,-1113.2503711724885,267.3479499343636
1.331392526626587,-161.0,-1113.2503499607046,267.3482390994085
1.3468635082244873,-161.0,-1113.2502689257913,267.3486624599481
1.3623526096343994,-161.0,-1113.2501594632345,267.34913125042857
1.3778166770935059,-161.0,-1113.250047226534,267.3495651058817
1.39327073097229,-161.0,-1111.8332817910443,267.3498965618162
1.4087514877319336,-161.0,-1111.7387709194043,267.35007640483093
1.4242393970489502,-161.0,-1111.6379992265365,267.3500799913633
1.439695119857788,-161.0,-1111.530546565188,267.3499146657015
1.4551403522491455,-161.0,-1111.415958954659,267.3496284235405
1.470609426498413,-161.0,-1111.2937478573535,267.3493207449615
1.486074447631836,-161.0,-1111.163389966897,267.3491560826638
1.501532793045044,-161.0,-1111.0243276435076,267.3490990268562
1.5169894695281982,-161.0,-1110.8759701554363,267.349117167418
1.5324461460113525,-161.0,-1110.7176959116514,267.349181686397
1.5479235649108887,-161.0,-1110.5488559009266,267.3492679070386
1.5633785724639893,-161.0,-1110.3687548828225,267.34935577188367
1.5788283348083496,-161.0,-1110.1766485442968,267.34943021671535
1.5942671298980713,-161.0,-1109.971740518864,267.3494814004998
1.6097445487976074,-161.0,-1109.753179255906,267.34950474383794
1.6252467632293701,-161.0,-1110.9367245396327,267.34950071970167
1.6407151222229004,-161.0,-1110.8769540562055,267.34947433022734
1.6561877727508545,-161.0,-1110.819499598659,267.34943419192035
1.6716532707214355,-161.0,-1110.7649329568005,267.34939113862424
1.6871023178100586,-161.0,-1110.7138920495747,267.34935623681906
1.702552080154419,-161.0,-1110.6670875892357,267.34933809103757
1.7180092334747314,-161.0,-1110.6253102380279,267.3493392474427
1.7334821224212646,-161.0,-1110.5894382561032,267.3493514584279
1.7489409446716309,-161.0,-1110.5604456302763,267.3493682871994
1.7644219398498535,-161.0,-1110.5394106619322,267.3493850285182
1.7798948287963867,-161.0,-1110.5275249786175,267.3493985846596
1.7953479290008545,-161.0,-1110.5261029171304,267.349407296501
1.8108046054840088,-161.0,-1110.5365927860842,267.3494107314754
1.826305866241455,-161.0,-1110.56058906887,267.3494094324595
1.842010498046875,-161.0,-1110.5998456388704,267.34940463459014
1.8575127124786377,-161.0,-1110.6562900644014,267.34939796064026
1.8729736804962158,-161.0,-1110.637594432719,267.34939111003615
1.888451337814331,-161.0,-1110.6216371244868,267.34938556202343
1.9039039611816406,-161.0,-1110.6084462928752,267.3493823200303
1.9193615913391113,-161.0,-1110.5980138486134,267.3493817321241
1.9348363876342773,-161.0,-1110.5902886352162,267.3493834318111
1.9503142833709717,-161.0,-1110.5851687049483,267.3493864545293
1.9657907485961914,-161.0,-1110.5824926027428,267.3493896016684
1.981304407119751,-161.0,-1110.582029559186,267.34939214455113
1.9967615604400635,-161.0,-1110.5834684877798,267.3493937350412
2.01241397857666,-161.0,-1110.5864056761698,267.34939431547605
2.0279040336608887,-161.0,-1110.5903310560063,267.34939403086383
2.043386936187744,-161.0,-1110.5946129319314,267.349393146488
2.058835744857788,-161.0,-1110.5984809416545,267.34939197415554
2.0742907524108887,-161.0,-1110.6010070665068,267.3493908102686
2.0897328853607178,-161.0,-1110.6010844950156,267.3493898886472
2.1051807403564453,-161.0,-1110.5974041237234,267.3493893505143
2.120637893676758,-161.0,-1110.5947247697904,267.34938923321283
2.1360909938812256,-161.0,-1110.5929306128105,267.34938947795877
2.151563882827759,-161.0,-1110.5918962341395,267.349389955154
2.167062282562256,-161.0,-1110.591488393175,267.349390503356
2.182523250579834,-161.0,-1110.591568377039,267.34939097479236
2.1979713439941406,-161.0,-1110.5919950218447,267.34939127614314
2.213426113128662,-161.0,-1110.5926285164517,267.34939138777486
2.228877305984497,-161.0,-1110.593335113603,267.34939133732314
2.244323968887329,-161.0,-1110.5939928886576,267.34939117747524
2.2597897052764893,-161.0,-1110.5944987028233,267.3493909682752
2.2752575874328613,-161.0,-1110.5947765459446,267.34939076410257
2.2907044887542725,-161.0,-1110.5947874535455,267.34939060527694
2.3061468601226807,-161.0,-1110.5945412210049,267.34939051401835
2.3215951919555664,-161.0,-1110.5941101646379,267.34939049426833
2.3370532989501953,-161.0,-1110.5936452092794,267.3493905346431
2.3525242805480957,-161.0,-1110.593394614983,267.349390613585
2.367995023727417,-161.0,-1110.5933059379959,267.34939070560984
2.383451223373413,-161.0,-1110.593330959675,267.3493907874532
2.3989410400390625,-161.0,-1110.593426608044,267.34939084293984
2.41443133354187,-161.0,-1110.5935558223684,267.34939086557875
2.429899215698242,-161.0,-1110.593688318724,267.34939085829785
2.445356607437134,-161.0,-1110.5938012051822,267.34939083044145
2.460853338241577,-161.0,-1110.5938793844314,267.3493907932859
2.4763379096984863,-161.0,-1110.5939156691531,267.34939075701675
2.4917972087860107,-161.0,-1110.5939105211862,267.3493907289862
2.507254123687744,-161.0,-1110.593871309077,267.3493907130336
2.522714614868164,-161.0,-1110.5938109599524,267.34939070962906
2.5381720066070557,-161.0,-1110.5937458603796,267.34939071658584
2.5536248683929443,-161.0,-1110.5936928363378,267.3493907300903
2.569096565246582,-161.0,-1110.593665014451,267.3493907458118
2.5845470428466797,-161.0,-1110.593666334796,267.34939075988973
2.5999984741210938,-161.0,-1110.5936844494502,267.3493907696433
2.615461587905884,-161.0,-1110.593709683547,267.34939077391226
2.63095760345459,-161.0,-1110.5937349318053,267.34939077300953
2.64640736579895,-161.0,-1110.5937554867228,267.3493907683475
2.6618618965148926,-161.0,-1110.5937687976798,267.3493907618654
2.677314519882202,-161.0,-1110.5937741629434,267.34939075543656
2.692769765853882,-161.0,-1110.5937723601276,267.3493907504362
2.7082161903381348,-161.0,-1110.5937652251741,267.3493907475796
2.7236552238464355,-161.0,-1110.5937551955756,267.3493907469504
2.7391176223754883,-161.0,-1110.5937448405346,267.3493907481481
2.7545735836029053,-161.0,-1110.5937364092983,264.92609803394583
2.770021438598633,-161.0,-1110.593731439255,264.7645451889003
2.785475015640259,-161.0,-1110.5937304778465,264.5922221537213
2.8009209632873535,-161.0,-1110.5937329872804,264.40841091529666
2.816364288330078,-161.0,-1110.5937375188028,264.21234559326234
2.8318123817443848,-161.0,-1110.593742264403,264.0032092488205
2.847252130508423,-161.0,-1110.5937461187334,263.78013048076565
2.8627283573150635,-161.0,-1110.5937485477457,263.54217979455586
2.8781840801239014,-161.0,-1110.593749455475,263.2883657293256
2.893620014190674,-161.0,-1110.5937490533918,263.0176307267242
2.9090638160705566,-161.0,-1110.5937477371056,262.7288467243814
2.9244961738586426,-161.0,-1110.5937459753834,262.4208104556444
2.939950466156006,-161.0,-1110.5937442164004,262.09223843599165
2.9554381370544434,-161.0,-1110.5937428158154,261.7417616152191
2.970919609069824,-161.0,-1110.593741990498,261.36791967310364
2.9863789081573486,-161.0,-1110.5937418004955,263.39244765131053
3.001845598220825,-161.0,-1109.4208260398761,263.2902042924682
3.017327308654785,-161.0,-1109.342632346584,263.19191489937276
3.0327939987182617,-161.0,-1109.2592258044997,263.0985610824162
3.048253059387207,-161.0,-1109.170258658981,263.01123776022416
3.0637025833129883,-161.0,-1109.0753600683263,262.93116390468833
3.079157590866089,-161.0,-1108.974134588588,262.8596942150795
3.094622850418091,-161.0,-1108.8661604865779,262.79833179736704
3.110067129135132,-161.0,-1108.750987949167,262.74874193088783
3.1255109310150146,-161.0,-1108.6281371820799,262.7127670109919
3.140956401824951,-161.0,-1108.4970963906587,262.69244276327646
3.1564104557037354,-161.0,-1108.357319634229,262.6900158325361
3.171879768371582,-161.0,-1108.2082245448187,262.7079628576622
3.1873388290405273,-161.0,-1108.0491899000467,262.74901115244023
3.2028188705444336,-161.0,-1107.8795530389953,262.8161611215883
3.218273401260376,-161.0,-1107.698607108895,262.9127105514873
3.233722448348999,-161.0,-1108.678514249488,262.88072807816576
3.2491700649261475,-161.0,-1108.6290267967956,262.85342966387896
3.2646305561065674,-161.0,-1108.5814530934763,262.83086398151266
3.2800729274749756,-161.0,-1108.536268246075,262.8130175081191
3.2955684661865234,-161.0,-1108.4940022185478,262.79980282464544
3.3110485076904297,-161.0,-1108.4552450285626,262.7910454193092
3.3265061378479004,-161.0,-1108.4206523912273,262.7864688329245
3.3419530391693115,-161.0,-1108.3909518515377,262.7856779686284
3.35740065574646,-161.0,-1108.366949445029,262.78814037114444
3.3728604316711426,-161.0,-1108.3495369292255,262.79316526182134
3.3883278369903564,-161.0,-1108.3396996317967,262.79988009505763
3.403780937194824,-161.0,-1108.3385249649677,262.8072043792257
3.419239044189453,-161.0,-1108.3472116596445,262.8138204806633
3.4346847534179688,-161.0,-1108.367079776951,262.8181411025448
3.4501287937164307,-161.0,-1108.3995815594812,262.8182731012752
3.4656217098236084,-161.0,-1108.4463131895204,262.8119772712611
3.4810774326324463,-161.0,-1108.4308331188556,262.80739388413417
3.4967103004455566,-161.0,-1108.4176202069932,262.80432483215117
3.5121841430664062,-161.0,-1108.4066980145608,262.802555555527
3.527658700942993,-161.0,-1108.3980599991266,262.8018580920209
3.5431277751922607,-161.0,-1108.3916638511653,262.8019951098459
3.558580160140991,-161.0,-1108.3874251060054,262.80272508921496
3.574037551879883,-161.0,-1108.3852099536573,262.8038088396344
3.589505910873413,-161.0,-1108.3848271604654,263.8180969750591
3.6049764156341553,-161.0,-1108.3860190081612,263.88676074865344
3.620424270629883,-161.0,-1108.388451146757,263.9596671144423
3.635885000228882,-161.0,-1108.3917012477543,264.036986249068
3.6513583660125732,-161.0,-1108.3952463332737,264.1189717070575
3.6668307781219482,-161.0,-1108.3984486448487,264.20598178881704
3.68230938911438,-161.0,-1108.4005399027085,264.2985045012352
3.6977617740631104,-161.0,-1108.4006037922568,264.3971865945659
3.713207244873047,-161.0,-1108.3975564991058,264.5028672161195
3.72865629196167,-161.0,-1108.395338057789,264.6158987715852
3.7441141605377197,-161.0,-1108.3938525811757,264.73667036754745
3.759584665298462,-161.0,-1108.39299621895,264.8656113550155
3.775082588195801,-161.0,-1108.392658633605,265.00319490588186
3.7905566692352295,-161.0,-1108.3927249524343,265.14994155895084
3.806034564971924,-161.0,-1108.3930782755297,265.3064226569333
3.821491241455078,-161.0,-1108.393602830321,264.4601841673955
3.836947202682495,-161.0,-1108.3941878749781,264.5029899802179
3.8523998260498047,-161.0,-1108.3947324660994,264.54407192898884
3.8678576946258545,-161.0,-1108.395151220722,264.5830322499586
3.8833048343658447,-161.0,-1108.39538121892,264.61943531668464
3.8987479209899902,-161.0,-1108.3953902112962,264.65279955732643
3.9142229557037354,-161.0,-1108.395186315726,264.68258740856044
3.9297072887420654,-161.0,-1108.3948294099273,264.70819293571543
3.94515061378479,-163.86666666666667,-1108.3944444511048,264.72892669179214
3.9608044624328613,-164.05777777777777,-1108.3942369812382,264.7439973235036
3.976344108581543,-164.26162962962962,-1108.394163576135,264.7525372269649
3.991816759109497,-164.47907160493827,-1108.3941843091322,264.75359501759266
4.0072760581970215,-164.71100971193417,-1108.3942635151445,264.74612726176446
4.022747039794922,-164.95841035939645,-1108.3943705072472,264.7289894188233
4.038219213485718,-165.2223043833562,-1108.3944802109013,264.7009259428148
4.053712844848633,-165.50379134224661,-1108.3945736732596,264.6605594952069
4.069183588027954,-165.8040440983964,-1108.3946383961222,264.67391785039433
4.084637641906738,-166.12431370495614,-1108.394668430865,264.68531304173945
4.100095510482788,-166.46593461861988,-1108.3946641618497,264.6947291159228
4.115551233291626,-166.8303302598612,-1108.3946316912582,264.7021755736538
4.131041526794434,-167.21901894385195,-1108.3945817227473,264.70769159078503
4.146507978439331,-167.63362020677542,-1108.3945278235108,264.7113510596823
4.161980867385864,-168.0758615538938,-1108.3944839240296,264.7132686364237
4.177423477172852,-165.68091899082003,-1108.3944608916363,264.713607016471
4.192873001098633,-165.80186914576362,-1108.3944619876718,264.7125857047829
4.208329677581787,-165.91814190362936,-1108.3944769881007,264.71049159686817
4.223782300949097,-166.0285760552293,-1108.394497882232,264.7076885548617
4.239243745803833,-166.13187635191537,-1108.3945187871047,264.70462812401297
4.254711151123047,-166.2266007945808,-1108.3945358052356,264.7018615148296
4.270160675048828,-166.31114682359308,-1108.3945468251015,264.70005298789664
4.2856245040893555,-166.38373631960886,-1108.394551266048,264.69999479090205
4.301077365875244,-166.4423993180997,-1108.394549772234,264.7026238106151
4.316525220870972,-166.48495633274658,-1108.394543863975,264.7045375412964
4.33198618888855,-166.5089991745993,-1108.3945355595158,264.70581917460026
4.347458362579346,-166.5118701449979,-1108.394526986027,264.7065585118454
4.362947225570679,-166.4906394706737,-1108.3945200056778,264.7068507077248
4.378404855728149,-166.44208083912847,-1108.3945158912068,264.70679464885416
4.393869876861572,-166.36264488128532,-1108.3945150957197,264.7064908881323
4.409325122833252,-166.24843043644475,-1108.3945171738321,264.70603903824616
4.424782037734985,-166.2862645328197,-1108.3945209259787,264.7055345063646
4.4402360916137695,-166.31855755862347,-1108.3945248551993,264.70506442646996
4.455694198608398,-166.34525193562305,-1108.394528046339,264.7047026151101
4.471142530441284,-166.36636366098264,-1108.3945300572793,264.70450355246
4.486626386642456,-166.3819961482538,-1108.3945308086245,264.7044952476898
4.502082347869873,-166.39235583849867,-1108.3945304755173,264.7046708298805
4.51753306388855,-166.3977697728257,-1108.3945293855447,264.70497868601274
4.53298020362854,-166.39870533637352,-1108.3945279268446,264.70531094568673
4.548462629318237,-166.39579240425843,-1108.3945264704855,264.7054900880249
4.563918828964233,-166.38984814235923,-1108.3945253109196,264.70555359114013
4.579378128051758,-166.3819047402099,-1108.3945246276796,264.7055358855761
4.594825744628906,-166.37324037989072,-1108.3945244704564,264.70546771049146
4.610280513763428,-166.3654137738385,-1108.3945247681086,264.70537551067594
4.625730037689209,-166.3603026361525,-1108.394525359902,264.70528090146405
4.641190767288208,-166.36014648647696,-1108.3945260441806,264.70520023568616
4.656654357910156,-166.36759422314577,-1108.3945266355372,264.70514431551555
4.672115325927734,-166.37301620250082,-1108.3945270161744,264.70511830279224
4.687582015991211,-166.37664677875935,-1108.3945271602395,264.70512189454706
4.703059673309326,-166.37873976830176,-1108.394527101166,264.7051498465096
4.718530178070068,-166.37956484212307,-1108.394526904092,264.7051929327796
4.733999252319336,-166.37940275504766,-1108.3945266437897,264.7052394451189
4.749446392059326,-166.3785392161509,-1108.3945263883413,264.70527735280143
4.764891862869263,-166.37725717903925,-1108.3945261885276,264.7052972639206
4.780333518981934,-166.37582730188362,-1108.39452607264,264.70529635180293
4.795795202255249,-166.37449629505866,-1108.394526046117,264.7052834360548
4.811248779296875,-166.37347283857196,-1108.39452609513,264.70526542571577
4.826729774475098,-166.3729107117961,-1108.39452619296,264.7052473950584
4.842189311981201,-166.37288873392313,-1108.3945263077937,264.7052327073629
4.857657432556152,-166.37338706459542,-1108.3945264104395,264.70522318714205
4.873119831085205,-166.37425935982495,-1108.3945264804752,264.70521933952057
4.88857626914978,-166.37520021804815,-1108.3945265095615,264.70522061310953
4.904047250747681,-166.37570728437498,-1108.394526501163,264.70522569961577
4.919590711593628,-166.37588668983327,-1108.3945264668291,264.705232859404
4.937881231307983,-166.3758360172382,-1108.3945264206016,264.7052402570611
4.9566969871521,-166.37564243383397,-1108.3945263752307,264.70524628443127
4.975438833236694,-166.37538093994803,-1108.394526339973,264.705249841208
4.994160175323486,-166.37511281894137,-1108.394526319719,264.7052505342806
5.01289701461792,-166.37488439246079,-1108.394526315144,267.05823204409387
5.031654596328735,-166.37472620668888,-1108.394526323585,267.2150943627721
5.050438642501831,-166.37465280034255,-1108.3945263403148,267.38241423017007
5.069183111190796,-166.37466323402813,-1108.3945263599278,265.13539533443304
5.087909698486328,-166.37474259372522,-1108.3945263775813,268.0217109727186
5.10665225982666,-166.37486471918712,-1108.3945263898893,266.6413611463814
5.1254355907440186,-166.37499645153807,-1108.3945263953622,266.77043637564935
5.144179821014404,-166.3751037440009,-1108.394526394357,266.90811725488317
5.162983655929565,-166.3751600362793,-1108.394526388616,267.0549771159073
5.18171501159668,-166.37515735749471,-1108.394526380553,267.21162754942713
5.200441837310791,-166.3751206957027,-1108.3945263725122,267.3787210060812
5.21952748298645,-166.37506962942732,-1108.3945263662245,267.55695354919305
5.238416433334351,-166.3750185369066,-1108.3945263625997,267.74706776866856
5.25716233253479,-166.37497694377814,-1108.3945263617572,267.9498558676177
5.275900363922119,-166.37495001070013,-1108.3945263632095,268.166162936045
5.29461669921875,-166.37493915681736,-1108.394526366109,266.04390713178134
5.313325881958008,-166.37494280777446,-1108.3945263695064,265.97628547096053
5.332068204879761,-166.37495724784685,-1108.394526372568,265.89369821150643
5.350811719894409,-166.37497754434713,-1108.3945263747182,268.2199447589402
5.369535207748413,-166.3749984983684,-1108.3945263757041,265.5679410762029
5.388245105743408,-166.37501555867794,-1108.3945263755788,267.0058038146164
5.407005548477173,-166.37502561464402,-1108.3945263746248,267.03009999249866
5.425743818283081,-166.37502755885106,-1108.3945263732426,267.04741090028864
5.444491624832153,-169.616687309251,-1108.394526371835,267.05669714331566
5.463269472122192,-169.8327891274491,-1108.3945263707162,267.0568118118096
5.482027530670166,-170.06329791211272,-1108.3945263700602,267.0464907626351
5.5007805824279785,-170.3091763932067,-1108.3945263698968,267.02434207973863
5.519531011581421,-170.5714501774587,-1108.3945263701419,266.98883464844164
5.538288116455078,-170.85121228682883,-1108.3945263706444,266.9382857737599
5.5570268630981445,-171.14962797636554,-1108.394526371237,266.87084776750277
5.575746774673462,-171.46793984074324,-1108.3945263717721,266.7844934229332
5.594485521316528,-171.80747321967164,-1108.3945263721498,266.83386584234336
5.613224506378174,-172.1696419137981,-1108.394526372326,266.8910378671023
5.631950378417969,-172.55595422486152,-1108.39452637231,266.9575271774753
5.650713205337524,-172.9680193368958,-1108.3945263721496,266.8733660053776
5.669448375701904,-173.40755405946433,-1108.3945263719127,266.96039433398926
5.6881585121154785,-171.51588635555245,-1108.3945263716678,266.9573670352808
5.706888437271118,-171.85861040494635,-1108.3945263714706,266.95251817146624
5.725595712661743,-168.98251776527613,-1108.3945263713526,266.94619198954473
5.744628429412842,-168.9402397956778,-1108.3945263713206,266.9388249792934
5.763453960418701,-168.88073650689304,-1108.3945263713606,266.93095919045896
5.782197713851929,-168.80189907987838,-1108.3945263714475,266.9232570856472
5.800909519195557,-168.7014139256565,-1108.394526371551,266.9165180860411
5.819645643234253,-168.57674484220303,-1108.3945263716448,266.91169698188105
5.838353395462036,-168.425113679228,-1108.3945263717114,266.9099243957558
5.857129812240601,-168.24347939275216,-1108.3945263717433,266.912529504306
5.875838279724121,-168.02851536288608,-1108.3945263717412,268.9935632761104
5.894542455673218,-167.77658483910037,-1108.394526371714,269.1375431050282
5.9132702350616455,-167.48371436745384,-1108.394526371673,269.28731012088997
5.932004690170288,-167.14556504362665,-1108.3945263716305,269.44262898378423
5.950716972351074,-166.75740142407537,-1108.3945263715962,269.6139131823448
5.969452857971191,-168.67456151901374,-1108.3945263715752,269.7908144389018
5.988157510757446,-168.48513986324448,-1108.3945263715686,269.9797109324765
6.006878614425659,-168.260241827131,-1108.3945263715752,270.18152378321054
6.025585412979126,-168.21209009792133,-1108.3945263715902,270.3972125694549
6.044514894485474,-168.16354678473758,-1108.3945263716082,270.6277717421323
6.063321828842163,-168.1157341365939,-1107.5682246135175,270.8742259122439
6.08204984664917,-168.0699898070416,-1107.5131378296558,271.137623834017
6.100809812545776,-168.02789486580062,-1107.4543785935296,271.4190308838821
6.119664907455444,-167.99130486737377,-1107.3917020749882,271.7195198106822
6.138439655303955,-167.96238427991685,-1107.324847121873,272.0401595050106
6.157505750656128,-167.94364460572783,-1107.253535171882,270.3095034720113
6.176234245300293,-167.9379865552506,-1107.1774690918912,270.39723281840475
6.1953370571136475,-167.9487466696606,-1107.0963319399032,270.4812121326298
6.214087009429932,-167.97974882314105,-1107.0097856444518,270.56080560007916
6.232893466949463,-168.03536107510868,-1106.9174695959732,270.6353507078322
6.251697301864624,-168.12055838517756,-1106.8189991442648,270.70344654286464
6.270491123199463,-168.0836248429218,-1106.7139639957777,270.7642886831288
6.289271593093872,-168.0568571749003,-1106.6019265040584,270.81659386650557
6.3083062171936035,-168.04329819808493,-1106.4824198462238,270.85893187205863
6.327089548110962,-168.0320454047625,-1106.354946077866,270.88971315889887
6.345889091491699,-168.02327864609748,-1107.0452758163906,270.90717592001664
6.364731788635254,-168.01711494673108,-1107.0104125632488,270.90937258720146
6.38352108001709,-168.01358995604372,-1106.9768975454883,270.89415583741373
6.402453899383545,-168.01263629539326,-1106.9450654756188,270.8591641676492
6.421493291854858,-168.01405839059456,-1106.9152897023275,270.8018071247804
6.440303802490234,-168.0175033313064,-1106.8879858743578,270.7192502994317
6.459175109863281,-168.02242724634496,-1106.8636159211894,270.746566754593
6.477964878082275,-168.02805662575125,-1106.842692376476,270.76985568367223
6.496742010116577,-168.0333439561573,-1106.8257830722473,270.7890985870751
6.5155181884765625,-168.03691696502503,-1106.8135162341007,270.80431811954145
6.534608602523804,-168.03702069101945,-1106.8065860099757,270.8155826136554
6.5533366203308105,-168.03145151140896,-1106.8057584676897,270.82305835170814
6.572127819061279,-168.02797328930808,-1106.8118780991506,270.8269763296134
6.590965986251831,-168.02604769693528,-1106.8258748721566,270.82766849382057
6.609714984893799,-168.0248976635253,-1106.8487718738857,270.8255842686047
6.628460884094238,-168.0244211474428,-1106.8816935936202,270.8213090092518
6.647266864776611,-168.02449731419918,-1106.870788112102,270.8155845485341
6.666027069091797,-168.02498947203037,-1106.8614798153587,270.809332012623
6.684859991073608,-168.02574943976282,-1106.853785300017,270.8036770909703
6.703594207763672,-168.02662364938746,-1106.847699954977,270.799977952525
6.722315788269043,-168.02746133330695,-1106.8431939718205,270.79985600770794
6.741062164306641,-168.02812520010698,-1106.8402078449844,270.8052297215931
6.7597949504852295,-168.02850506369114,-1106.838647306571,270.80914058605975
6.7785515785217285,-168.0285349595538,-1106.8383776352437,270.81175957955224
6.797282695770264,-168.0282143597802,-1106.839217272777,270.813270312384
6.815994739532471,-168.02763418609723,-1106.8409306753554,270.81386712524017
6.834717273712158,-168.02700841910246,-1106.8432203197142,270.81375275934585
6.853482961654663,-168.02671221294867,-1106.8457177765156,270.81313238652166
6.872212171554565,-168.02662814119137,-1106.8479737550067,270.81220945698226
6.890990495681763,-168.02666683747512,-1106.8494470138633,270.81117885452636
6.909730672836304,-168.02678478240512,-1106.849492023195,270.8102184935878
6.928438901901245,-168.02694235806928,-1106.8473452518333,270.8094791258769
6.947168827056885,-168.02710536099394,-1106.845782394482,270.8090720976998
6.96588134765625,-168.02724642025817,-1106.844735899757,270.8090547700382
6.984651327133179,-168.0273462189579,-1106.8441326064064,270.80941328197605
7.003446340560913,-168.02739439026257,-1106.8438947831683,270.81004230393944
7.022188425064087,-168.02738992739296,-1106.843941503925,270.8107213903549
7.040923118591309,-168.027340909212,-1106.844190414521,270.8110875016057
7.059636831283569,-168.0272632989134,-1106.844559955051,270.8112172959754
7.078374862670898,-168.02717852153737,-1106.8449721097047,270.811181143737
7.097134351730347,-168.02710946565452,-1106.8453557655,270.8110418658272
7.115855932235718,-168.02707448429166,-1106.8456507715093,270.81085351519965
7.134569883346558,-168.0270788886376,-1106.845812801629,270.81066023225657
7.153324127197266,-168.0271033336835,-1106.8458191366367,270.81049542197223
7.172050714492798,-168.027135013183,-1106.845675495412,270.8103811529715
7.190800428390503,-168.02716622489686,-1106.8454240608487,270.8103279728678
7.209526062011719,-168.0271916543963,-1106.845152863359,270.8103352714865
7.228218078613281,-168.02720827415143,-1106.8450067041272,270.8103923478605
7.2472546100616455,-168.02721513502857,-1106.8449549914371,270.8104803645379
7.266056060791016,-168.0272130493466,-1106.8449695975492,270.8105754041712
7.284786224365234,-168.02720417137257,-1106.8450253969584,270.81065287898423
7.303528308868408,-168.02719149011324,-1106.845100771211,270.81069358398724
7.322229623794556,-168.02717826096125,-1106.8451780556968,270.81069173022945
7.340928792953491,-168.0271674177445,-1106.845243898442,270.81066534547097
7.359663486480713,-168.02716102566657,-1106.8452894946681,270.8106285487707
7.378375053405762,-168.0271598592752,-1106.8453106536656,270.8105917091063
7.397130250930786,-168.02716321884992,-1106.84530764621,270.8105616986582
7.415842533111572,-168.0271691344872,-1106.8452847711899,270.81054224422206
7.4345409870147705,-168.02717515087716,-1106.8452495691606,270.8105343783531
7.453248977661133,-168.02717993869004,-1106.8452115979958,270.8105369754452
7.471998929977417,-168.02718293372385,-1106.8451806715013,270.81054736361006
7.490748882293701,-168.02718404764562,-1106.845164445545,270.81056198965956
7.5095038414001465,-168.0271835405289,-1106.8451652176907,270.81057710420447
7.528229713439941,-168.02718189162073,-1106.8451757852615,270.8105894212941
7.547046422958374,-168.02717967539357,-1106.8451905048498,268.6898907303249
7.56578803062439,-168.02717745046337,-1106.8452052320033,268.54851175206846
7.584537982940674,-168.02717566906944,-1106.8452172210061,268.3977023436074
7.603289604187012,-168.02717461433318,-1106.8452249843258,268.23683626091537
7.622027635574341,-168.02717437122462,-1106.845228112901,268.06524589629447
7.640792369842529,-168.02717483478997,-1106.8452270605312,267.882217933016
7.659532308578491,-168.0271757553982,-1106.8452228982558,267.6869905586324
7.678258895874023,-168.02717681513974,-1106.8452170478952,267.47875048193407
7.69700813293457,-168.02717772155904,-1106.8452110080075,267.2566297341525
7.715728759765625,-168.02717829403048,-1106.8452060904622,267.0197022334812
7.734704494476318,-168.02717850357405,-1106.845203191882,266.7669800904897
7.753479242324829,-168.02717840789964,-1106.8452026314746,266.4974096314927
7.772206783294678,-168.027178106178,-1106.8452040954726,266.20986711601824
7.7909040451049805,-168.02717771008017,-1106.8452067388014,265.90315412444215
7.80962872505188,-168.0271773213836,-1106.8452095068753,265.57599259245796
7.828351259231567,-168.02717701670113,-1106.845211754983,267.3477254319552
7.84709906578064,-168.02717683945497,-1106.8452131716585,267.2582477453972
7.865795850753784,-168.02717679872106,-1106.8452137009688,267.17223014495244
7.884514570236206,-168.0271768740312,-1106.8452134662996,267.09053199837547
7.90330171585083,-168.02717702467774,-1106.8452126984312,267.0141117142061
7.922030210494995,-168.0271772015746,-1106.8452116708,266.9440361020669
7.940738677978516,-168.02717735936025,-1106.8452106448176,266.8814906466703
7.9594504833221436,-168.02717746629105,-1106.845209827922,266.8277906525395
7.978172540664673,-168.02717750970115,-1106.8452093465903,266.78439333057986
7.996892690658569,-168.0271774955773,-1106.845209235829,266.752910903675
8.015657663345337,-168.02717744234707,-1106.8452094455204,266.7351248150213
8.034367799758911,-168.02717737159858,-1106.8452098624296,266.73300112999
8.05309510231018,-168.0271773025119,-1106.8452103444934,266.7487072298898
8.071835994720459,-168.02717724893412,-1106.8452107610947,266.78462990414795
8.090590715408325,-168.02717721819104,-1106.8452110292476,266.84339495612835
8.109365701675415,-168.0271772113115,-1106.845211130739,266.92788844703966
8.128104448318481,-168.02717722428557,-1106.8452110891228,266.89989931471206
8.146832466125488,-168.02717724994093,-1106.845210950287,266.87600941933295
8.165558576583862,-168.02717728002227,-1106.8452107669082,266.85626137095835
8.184306144714355,-168.02717730708835,-1109.055529869155,266.84064332913056
8.203092098236084,-168.02717732591574,-1109.2028843472033,266.8290787701255
8.221859693527222,-168.02717733420513,-1109.3600625256302,266.82141494799606
8.240597009658813,-168.0271773325281,-1109.5277193176844,266.81740990141776
8.259340047836304,-168.02717732361057,-1109.7065532836684,266.81671785134296
8.278058052062988,-168.02717731120453,-1109.8973095461401,266.81887281939385
8.296795845031738,-168.02717729891302,-1110.100782900161,266.82327028044176
8.315543174743652,-168.02717728935073,-1110.3178211304703,266.8291466448032
8.334262132644653,-168.0271772838676,-1110.5493285483396,266.8355563457907
8.352974891662598,-168.02717728262462,-1110.7962697619294,266.84134628685075
8.371683359146118,-168.02717728487065,-1111.0596736953185,266.84512737903094
8.390429019927979,-168.02717728931594,-1111.3406378730567,266.84524287389115
8.409157514572144,-168.02717729451624,-1111.6403329892114,266.83973316901455
8.42789888381958,-168.02717729919829,-1111.9600077825503,266.8357220926347
8.446629285812378,-168.0271773024821,-1112.3009942380345,266.83303627085485
8.465349912643433,-168.0271773039794,-1110.4543938539036,266.8314879308479
8.4841468334198,-168.02717730377216,-1110.5476514528866,266.8308775709624
8.50290036201477,-168.0271773022959,-1110.6373025932658,266.8309974910182
8.52167296409607,-168.02717730016863,-1110.722451931108,266.83163632721966
8.540407180786133,-168.02717729801137,-1110.8021007720029,266.83258475560643
8.559193849563599,-168.02717729630473,-1110.8751372712252,266.83364254922407
8.577929973602295,-168.02717729531142,-1110.9403257862311,266.8346271978794
8.59665036201477,-168.02717729507134,-1110.9962953119689,266.83538432570856
8.615454912185669,-168.02717729545273,-1111.0415269240689,266.8358001711023
8.634206771850586,-168.02717729622503,-1111.0743401491172,266.835816426123
8.652928590774536,-168.02717729713177,-1111.09287817493,266.83544776874123
8.671664953231812,-168.02717729794915,-1111.095091806904,266.83480246138856
8.690407752990723,-168.0271772985247,-1112.9390492820337,266.8341064338884
8.7091383934021,-168.02717729879194,-1113.0256303682218,266.8337313182133
8.727862358093262,-167.29203214551205,-1113.096671873933,266.83359859991856
8.746608257293701,-167.24302246838073,-1113.1497170496596,266.83363608852284
8.765387296676636,-167.1907454793408,-1113.32940526271,266.83377929903446
8.784116744995117,-167.13498335771203,-1113.5148555166984,266.8339727475726
8.802876949310303,-167.07550376140645,-1113.7066923782609,266.8341710980096
8.821596145629883,-167.01205885882231,-1113.905641741404,266.83434008272894
8.840346813201904,-166.94438429620968,-1114.1125444726972,266.8344571045371
8.859113931655884,-166.87219809620333,-1114.3283716194621,266.83451140822467
8.877826929092407,-166.79519948292946,-1114.5542413416777,266.8345036889143
8.89652943611145,-166.71306762878666,-1114.7914377436582,266.8344449797947
8.915254831314087,-166.62546031767562,-1115.0414317982975,266.8343546337075
8.934014797210693,-166.53201251910565,-1115.3059045749096,266.8342571808797
8.95276427268982,-166.43233486723727,-1115.5867730015748,266.83417780835566
8.971500873565674,-166.32601203852312,-1114.0258912016798,266.8341361648201
8.990215539932251,-166.21260102118967,-1114.0983473296562,266.83413814688225
9.008955717086792,-166.8267744226023,-1114.1698617937518,266.83416526879347
9.027691125869751,-166.795757241075,-1114.2414077884066,266.83420304671847
9.046469926834106,-166.7659395592546,-1114.3141871709895,266.8342408439315
9.065216064453125,-166.73761916458218,-1114.3798392982083,266.8342716135914
9.083962202072144,-166.71112821837355,-1114.4375048836423,266.83429153799256
9.102749824523926,-166.6868365155047,-1114.4862257173343,266.8342995673248
9.121470928192139,-166.66515502595018,-1114.5249313157296,266.8342968662979
9.140194416046143,-166.64653974126622,-1114.552423771932,266.8342861837486
9.158973455429077,-166.63149585093709,-1114.5673605820964,266.8342711687835
9.177696704864502,-166.6205822754709,-1114.5682351981243,266.8342556674415
9.196400165557861,-166.61441658524984,-1114.5533550284222,266.8342430466179
9.215154886245728,-166.61368033642145,-1114.520816577097,266.8342356074786
9.233877897262573,-166.61912485757586,-1114.4684773772428,266.83423416925183
9.25267767906189,-168.25696919976005,-1114.3939243356208,266.83423792664496
9.271701097488403,-168.38569967717586,-1114.4184598778836,266.83424471076665
9.290455341339111,-168.53057292090827,-1114.4398007144323,266.8342518150256
9.309181213378906,-168.644159487462,-1114.4577966424774,266.83425758477443
9.32789421081543,-168.76738630388778,-1114.4722225660819,266.8342612206448
9.346627473831177,-168.90081608686333,-1114.482758259088,266.83426257909235
9.365337133407593,-169.0450292150154,-1114.489619523147,266.83426197679245
9.384047269821167,-169.20062261479154,-1114.4930938324471,266.8342600060457
9.402750015258789,-169.368208354744,-1114.4935517067881,266.8342573686271
9.421480655670166,-169.54841190999693,-1114.4914597328586,266.8342547354491
9.440232753753662,-169.74187005457898,-1114.487395463587,266.8342526388958
9.459013223648071,-169.94922833482178,-1114.4820644556864,266.83425140356997
9.477731227874756,-170.1711380721118,-1114.476319739524,266.83425111931183
9.496466398239136,-170.4082528379026,-1114.4711840535974,266.8342516574914
9.515241622924805,-170.66122433800135,-1114.4678752186976,266.8342527274923
9.533960342407227,-169.3053059605348,-1114.4678350747947,266.83425396470835
9.552735567092896,-169.37519507791976,-1114.472762457406,266.8342550339125
9.571451902389526,-169.44116143796936,-1114.476382629374,266.83425572212224
9.590149879455566,-169.50186733910675,-1114.4788214237037,266.8342559825953
9.608907222747803,-169.55904786254976,-1114.4802230757855,266.83425587578336
9.627627849578857,-169.6118252997939,-1114.480756443099,266.8342555194593
9.646371603012085,-169.65922591398927,-1114.4806229886997,266.83425504881706
9.66508412361145,-169.70017236058752,-1114.4800232197367,266.83425458695206
9.683840274810791,-169.73347567697388,-1114.479151845556,266.8342542256791
9.702566146850586,-169.75782683178923,-1114.4781918548072,266.83425401614926
9.721558570861816,-169.77178782657538,-1114.4773073296035,266.8342539681959
9.740308046340942,-169.77378234470845,-1114.476634787338,266.83425405681595
9.759158849716187,-169.76208594536757,-1114.4762728094481,266.8342542336991
9.7778799533844,-169.73481580358467,-1114.4762696807766,266.83425444132484
9.796597957611084,-169.68992000129677,-1114.4766087225885,266.8342546269138
9.815354585647583,-169.62516637884983,-1114.4771909561812,266.83425475354187
9.834077835083008,-169.64649040673746,-1114.4778146816068,266.83425480613073
9.852814197540283,-169.664576761992,-1114.4781514965537,266.8342547909453
9.871606349945068,-169.67947111692683,-1114.4782694210323,266.8342547288668
9.890345811843872,-169.6913113687815,-1114.4782326208542,266.83425464528494
9.909087181091309,-169.7001289358636,-1114.4780999238585,266.8342545632517
9.927797079086304,-169.70601584493494,-1114.477922822576,266.83425449950454
9.946503400802612,-169.70913517366463,-1114.4777428115012,266.83425446288373
9.965234518051147,-169.70973269453643,-1114.4775907842854,266.83425445461245
9.98397445678711,-169.7081498290406,-1114.4774867135343,266.8342544698747
10.00270414352417,-169.70483802885735,-1114.4774397041158,266.83425450012305
10.0214364528656,-169.70037470900948,-1114.4774485290834,266.8342545355849
10.04015851020813,-169.69548086662957,-1114.477502778533,266.83425456750285
10.05889368057251,-169.691040528047,-1114.4775847764722,266.8342545897564
10.077635288238525,-169.68812217634454,-1114.4776724495182,266.83425459965184
10.096349954605103,-169.6880023213477,-1114.4777433646473,266.83425459783444
10.115118265151978,-169.69219138418094,-1114.4777801918783,266.8342545874539
10.133824348449707,-169.6952381160105,-1114.477777892563,266.83425457287547
10.152549743652344,-169.6972822062784,-1114.4777529856303,266.8342545583374
10.171308279037476,-169.6984696122352,-1114.4777185566033,266.8342545469688
10.190031290054321,-169.69894682846544,-1114.4776842856534,266.8342545404144
10.208792924880981,-169.69886802130551,-1114.4776565764398,266.8342545388919
10.227627038955688,-169.69839149973023,-1114.4776388266976,266.83425454151774
10.246357917785645,-169.69767525480125,-1114.4776318943773,266.83425454676
10.265097856521606,-169.69687142548563,-1114.4776346350502,266.83425455290313
10.283859014511108,-169.6961195319153,-1114.4776444964843,266.8342545584384
10.302569150924683,-169.6955382987858,-1114.4776581493088,266.83425456232607
10.321287393569946,-169.69521587143754,-1114.4776721239905,266.8342545641088
10.340004205703735,-169.6951982050914,-1114.4776834136876,266.83425456388255
10.358728170394897,-169.69547538356102,-1114.4776899895019,266.83425456215764
10.377520084381104,-169.69596559737545,-1114.4776911588342,266.834254559658
10.396250247955322,-169.69649648244396,-1114.4776876784467,266.8342545571129
10.41501498222351,-169.6967834889948,-1114.4776815108846,266.8342545550902
10.43374252319336,-169.69688651386045,-1114.4776750854394,266.8342545539045
10.452454805374146,-169.69686013436592,-1114.4776698920934,266.83425455360896
10.4712553024292,-169.69675283584135,-1114.4776666477926,265.7119709171444
10.489972829818726,-169.69660656966641,-1114.4776654719356,265.6371520089264
10.508733034133911,-169.69645580622375,-1114.4776660649686,265.55734517359537
10.527472734451294,-169.69632675999,-1114.477667880853,265.47221788240057
10.546199083328247,-169.69623686033592,-1114.4776702799513,265.3814154381099
10.564951181411743,-169.69619455599258,-1114.4776726562782,265.28455949712367
10.58371376991272,-169.6961995575977,-1114.4776745335978,265.18124649303604
10.602437734603882,-169.69624364151852,-1114.4776756258834,265.0710459550834
10.62120270729065,-169.6963121595239,-1114.477675859343,264.9534987144817
10.63998818397522,-169.69638642315277,-1114.47767535572,264.8281149911883
10.658746004104614,-169.69644715912557,-1114.4776743801349,264.69437235312364
10.677522659301758,-169.69647926324222,-1114.4776732615549,264.5517135393547
10.696281909942627,-169.69647811529546,-1114.4776723004286,264.3995441381709
10.71504545211792,-169.69645775704885,-1114.4776716863985,264.23723011037623
10.733774423599243,-169.6964291732614,-1114.4776714597958,267.31494647344925
10.75252366065979,-169.6964004425211,-1114.477671564309,265.8482798067826
10.771265745162964,-169.6963769496331,-1114.4776718920766,265.8573670660918
10.790024042129517,-169.6963616416309,-1114.4776723200862,265.8720480699028
10.808756828308105,-169.69635536399133,-1114.4776727370943,265.89302826298996
10.827504634857178,-169.69635727092475,-1111.7791615450371,265.9210822883626
10.846228837966919,-169.6963652982973,-1111.5992609627096,265.9570600783794
10.864965438842773,-169.6963766811176,-1111.4073668498052,266.0018934504631
10.88372540473938,-169.6963884893523,-1111.2026796708856,266.056603247625
10.902449607849121,-169.69639814587455,-1110.984346607219,266.12230706712774
10.921177625656128,-169.69640387829793,-1110.7514579904107,266.2002276239708
10.939894437789917,-169.6964050419743,-1110.50304349939,266.29170179948966
10.958612203598022,-169.6964022341642,-1110.2380681073407,266.3981904292474
10.977350950241089,-169.69639709889233,-1109.9554277637262,266.5212888885736
10.996106624603271,-169.6963916977988,-1109.6539447946127,266.6627385386004
11.014867305755615,-169.69638729384877,-1109.3323630018272,263.57358777450713
11.03359341621399,-169.69638450188796,-1108.9893424379625,265.9451602928076
11.05241870880127,-169.69638343917904,-1108.6234538295394,265.95161899187593
11.07121229171753,-169.6963838718155,-1108.2331726253701,265.9579024535949
11.08995270729065,-169.6963853538278,-1107.8168726457225,265.96362607917433
11.108683109283447,-169.69638735315024,-1110.071330822104,265.96833260025335
11.127405881881714,-169.69638935863193,-1109.9574754405753,265.97148262104605
11.146139860153198,-169.69639096265425,-1109.848023072433,265.97244412389045
11.164847135543823,-169.69639191475667,-1109.744066820608,265.97048083545235
11.183567762374878,-169.69639214311695,-1109.6468259639228,265.96473934130745
11.202322721481323,-169.6963917429331,-1109.5576579210363,265.9542348262528
11.22107744216919,-169.69639093390876,-1109.4780712497445,265.9378353064049
11.239808082580566,-169.69638999337107,-1109.4097397664348,265.9142442068659
11.258526802062988,-169.6963891773182,-1109.354517877041,265.8819811253738
11.277534246444702,-169.69638864921325,-1109.314457217929,265.8393606078272
11.29629373550415,-169.69638844597424,-1109.2918247128168,265.7844687457756
11.31506061553955,-169.69638852278257,-1109.289122160216,265.93186081052687
11.33377480506897,-169.69638879084224,-1109.309107475033,265.9309741783748
11.352479219436646,-169.69638914761978,-1109.354817718066,265.92959785747473
11.371246337890625,-169.69638949934009,-1109.4295940575792,265.9277108844
11.389957904815674,-169.69638977570756,-1109.5371088183695,265.9253165380817
11.408703327178955,-169.6963899372114,-1109.5014940181204,265.9224488006036
11.427430152893066,-169.69638997578338,-1109.4710952566234,265.91917987924074
11.446204662322998,-169.69638990999195,-1109.4459667355695,265.91562892959746
11.464915990829468,-169.69638977634096,-1109.4260933965668,265.9119721358738
11.483643770217896,-169.69638961855588,-1109.4113778920764,265.9084543221782
11.502429008483887,-169.69638947693073,-1109.4016258901459,265.90540228857327
11.521162271499634,-169.69638937979883,-1109.3965295328392,265.9032400873845
11.539880990982056,-169.69638933889408,-1109.3956488505996,265.90250647941906
11.558593511581421,-169.69638934966582,-1109.3983909155036,265.90387483635544
11.577366590499878,-169.69638939636266,-1109.4039864953418,265.908175784924
11.596083164215088,-169.69638945972187,-1109.41146394751,265.9164229208672
11.614820957183838,-169.69638952218446,-1109.419620066663,265.91539372822325
11.63353419303894,-169.69638957094062,-1109.4269875727716,265.91435503154645
11.652268648147583,-169.69638959916202,-1109.4317988964185,265.9133388431513
11.67105746269226,-171.84996363253933,-1109.4319458856744,265.912380707068
11.690118074417114,-171.9935352229948,-1109.4249350234948,265.9115183183338
11.708913087844849,-172.14667824204705,-1109.4198310905197,265.91078961951575
11.727633953094482,-172.3100307931313,-1109.4164134794462,265.91023026886745
11.746355295181274,-170.99693813246515,-1109.4144432623714,267.2491883402276
11.765089750289917,-171.08364135620675,-1109.4136665867584,267.33833608718453
11.783812046051025,-171.1761248053835,-1109.4138191664038,267.433661538185
11.80254054069519,-171.27477382728037,-1109.4146320514878,267.535545488159
11.821306705474854,-171.37999945711243,-1109.4158388860642,267.6443658482107
11.840017795562744,-171.49224013166034,-1109.4171848884287,267.7604898061301
11.858735084533691,-171.6119635171266,-1109.418437819957,267.88426413744844
11.877502202987671,-171.7396684585109,-1109.419401241598,268.0160033609501
11.896219968795776,-171.87588705843018,-1109.4199303945372,268.1559753902889
11.914983987808228,-172.02118689417992,-1109.4199510830622,268.3053475010933
11.933712005615234,-172.17617338239586,-1109.4194819837483,268.4647469990631
11.952432870864868,-170.18791827455559,-1109.4186608562368,268.6348408761239
11.971255779266357,-170.07711525068999,-1109.4177751876077,268.8163382207276
11.989985227584839,-169.949353919203,-1109.4172978652152,269.0099928808872
12.008684158325195,-169.8028656310134,-1109.4171289835285,269.21660643164535
12.027437925338745,-171.12305667308095,-1109.4171766838006,268.09771352708833
12.046469688415527,-171.13146457578867,-1109.4173589118957,268.15428187287904
12.065256357192993,-171.13465279042748,-1109.4176050669048,268.208678258592
12.083977460861206,-171.1318879894304,-1109.4178574602715,268.2603460399525
12.102682113647461,-171.12236226690706,-1109.4180724875237,268.3086660767387
12.121472597122192,-171.10518645422673,-1109.418221394288,268.3529527586405
12.140322923660278,-171.0793828757311,-1109.4182904946786,268.3924502888079
12.159090995788574,-171.0438774996381,-1106.5903946400144,268.4263293655652
12.177801370620728,-170.99749143571324,-1106.401794199909,268.45368443253955
12.19652247428894,-170.9389317275321,-1106.200585120267,268.4735317020229
12.215261220932007,-170.86678138308892,-1105.9859607227474,268.4847439820849
12.234024047851562,-170.7794885831351,-1105.7570593053472,268.4860771142864
12.252729177474976,-170.81892660370707,-1105.5129525352882,268.4761595301639
12.271515846252441,-170.86838069390822,-1105.2526310251335,268.453480950793
12.290253162384033,-170.92964914555523,-1104.9749865691279,268.41638015545334
12.308977365493774,-171.0047680465247,-1104.6788437415012,268.36303173704056
12.327701330184937,-170.9968821380876,-1104.3629548786812,268.380719617704
12.346413850784302,-170.98790997557418,-1104.0259946098006,268.395815467359
12.365122556686401,-170.9781271212506,-1103.6665539126602,268.40829128127683
12.383853435516357,-170.9678763967053,-1103.2831336761526,268.4181542973651
12.402545928955078,-170.9575773386919,-1104.788595510318,268.4254535120736
12.421298742294312,-170.94773673098956,-1104.47995378472,268.4302868956358
12.440027236938477,-170.93896032134015,-1106.9786173703678,265.3374568763819
12.45875096321106,-170.93196584278695,-1107.0044988857246,265.4423682520109
12.477461099624634,-170.92759746992522,-1107.0446791981124,268.27878928984154
12.496209383010864,-170.9268418527514,-1107.1009521366354,268.2658064623628
12.51496410369873,-170.93084588406225,-1107.175284897561,268.25121062771467
12.533699035644531,-170.9409363707907,-1107.2698332703756,268.2355528619432
12.552419662475586,-170.9490703552629,-1107.3869586527146,268.21951241739515
12.571160554885864,-170.9544496660199,-1107.52924716122,268.20391451516866
12.589891910552979,-170.9561030340509,-1107.6995312006927,268.1897501391496
12.60867428779602,-170.95285869988595,-1107.9009103646388,268.1781980326236
12.62744140625,-170.94992380400586,-1108.136774063703,268.16469659361826
12.646233081817627,-170.94739139256797,-1108.410826027296,268.1492886687022
12.664965152740479,-170.94534234398913,-1108.7271108349385,268.13202182786387
12.683701992034912,-170.94384007380805,-1107.175584890601,268.1129463298971
12.702430248260498,-170.94292425614913,-1107.3347175159533,268.092112517752
12.72113299369812,-170.9426034244931,-1107.5250350980355,271.1649200189355
12.739904880523682,-170.9428462980366,-1107.5614629465467,271.24258135353125
12.758630990982056,-170.94357166171994,-1107.5985938839347,268.5920867771
12.777347803115845,-170.94463660783958,-1107.6355215296564,268.6129732762505
12.79610562324524,-170.94582292484546,-1107.671159489191,268.6361177305097
12.81482720375061,-170.946821394231,-1107.7042177952999,268.6617782040294
12.833531141281128,-170.947213729127,-1107.733176763628,268.69019322683516
12.85226058959961,-170.94708995405128,-1107.7562579710223,268.72157194746444
12.87101125717163,-170.9465993065867,-1107.7713920250092,268.75608244295086
12.889767408370972,-170.94596572475575,-1107.7761827466304,268.79383792987096
12.9084951877594,-170.9455061930804,-1107.7678675720965,268.83488058968743
12.927246809005737,-170.94521168568542,-1107.7432738059897,268.8795595227587
12.945972442626953,-170.94506637189323,-1107.6987703245688,268.92824424636245
12.964720249176025,-170.94504797375347,-1107.6302142905442,268.98132574092904
12.983447074890137,-170.94512850041653,-1107.6605229172071,269.03921770166454
13.00215458869934,-170.94527545003436,-1107.6822432772906,269.1023580472587
13.020877838134766,-170.94545358507045,-1107.6927238225746,268.9648539158136
13.039610385894775,-170.94562740420605,-1107.701474547643,268.81300541996575
13.058382749557495,-170.9457644537051,-1107.7083332585569,268.8277333294901
13.07710886001587,-170.94583964342945,-1107.713187373817,268.8420506663727
13.09585690498352,-170.94584075800174,-1107.7159892327918,268.8557795287636
13.11459469795227,-170.94577538225312,-1107.7167739952915,268.86871295041254
13.133332014083862,-170.94567949246155,-1107.7156804774022,268.8806142653177
13.152096033096313,-170.94558546168892,-1107.712975311161,268.8912170865079
13.170827627182007,-170.94551787202906,-1107.7090808635708,269.04081159031114
13.189547777175903,-170.94548801518062,-1107.7046074047,269.05727650100715
13.20827317237854,-170.94548680332065,-1107.7003900602072,269.07210289509516
13.227039575576782,-170.94550514449628,-1107.6975311438218,269.0849391199175
13.245752334594727,-170.94553439600315,-1107.6974485317721,269.09538544482126
13.264749526977539,-170.9455668241531,-1107.7019308145204,269.10298942508075
13.28351879119873,-170.94559604573553,-1107.704691341008,269.1072408733085
13.302237033843994,-170.9456174187823,-1107.7061878785892,269.1075663950452
13.320952415466309,-170.94562834102973,-1107.7070854823235,269.1170805603273
13.33967113494873,-170.94562840348465,-1107.7074595446356,269.1373522363514
13.358435869216919,-170.94561933346995,-1107.7074012970409,269.1579934968088
13.37714672088623,-170.94560464613932,-1107.7070155585893,267.6351901190506
13.395858764648438,-170.9455889053485,-1107.7064173136423,267.5538174917364
13.414589881896973,-170.94557647355487,-1107.705726868199,267.4661577944914
13.433326959609985,-170.94556960562778,-1107.705063294252,267.3718606964363
13.45206880569458,-170.94556854855702,-1107.7045358264581,267.1299847428653
13.470816612243652,-170.94557192699224,-1107.7042328239838,267.00259628636894
13.489544153213501,-170.94557752111302,-1107.7042078519362,266.865617605393
13.508263111114502,-172.14921173422496,-1107.7044623713848,266.7185185860796
13.527051210403442,-172.2294588402069,-1107.7049244532222,266.56075721715706
13.545767307281494,-172.3150538031538,-1107.7054228479856,266.39178200197944
13.564498901367188,-172.4063529350872,-1107.7056556502166,266.21103484043937
13.583256721496582,-172.50373672771062,-1107.7057199374974,266.0179544382481
13.601996660232544,-172.60761134830582,-1107.7056887414246,265.81198030779495
13.620716333389282,-172.71841021545757,-1107.7055956253646,266.9375082704398
13.639460325241089,-170.9220349885586,-1107.7054713640798,266.79085200604567
13.658477306365967,-170.92046269889786,-1107.7053427018827,268.1769088064487
13.677320003509521,-170.9187865690818,-1107.705231178102,268.2130233856086
13.696105718612671,-170.916999746664,-1107.7051521023993,268.2569704452001
13.7149498462677,-170.91509463153793,-1108.0581036445194,268.30969128858067
13.733686923980713,-170.91306296659863,-1108.0816396678706,268.372213328057
13.752399206161499,-170.9108959278014,-1108.1067799239647,268.4550285670698
13.771202325820923,-170.90858419452198,-1108.1336163972967,268.5518573857832
13.789958715438843,-169.7024898074901,-1108.1622436336543,268.66427337114254
13.80867338180542,-169.53937501237442,-1108.1927623844722,268.79399035681337
13.827439546585083,-169.36003609051892,-1108.2252849132224,268.9428725661238
13.846170425415039,-169.16303490967664,-1108.259942384238,269.1129452704001
13.864930391311646,-168.94681370798259,-1108.2968948331727,269.30640596573073
13.883666038513184,-168.7096855066674,-1108.3363064928844,269.5256360675629
13.902394533157349,-168.4498237838915,-1110.355927243456,268.42734513873376
13.921173810958862,-170.07981203615094,-1110.5326160179955,268.5266675966201
13.93991756439209,-170.02366383932377,-1110.7210923282562,268.6423886359917
13.958636999130249,-169.9638772486855,-1110.922142303348,268.6734206246279
13.977424144744873,-169.90021662732573,-1111.136603045031,268.70411377389587
13.996155738830566,-169.83243108603654,-1111.0123765813667,268.7339233291422
14.014885187149048,-169.7602535163364,-1111.2093281104899,268.76220546517965
14.033630609512329,-169.6833995529856,-1111.417840673331,268.78820494098784
14.052360534667969,-169.6015664613312,-1111.6385780566222,268.81041669924906
14.071134567260742,-169.51443194578513,-1111.8722421672437,268.82765398681346
14.089887619018555,-169.5018947550048,-1112.1195754028163,268.8385460278582
14.108609676361084,-169.49939607118014,-1112.3813629373726,268.8415164059278
14.12735390663147,-169.5086867365576,-1112.6584348056492,268.8347593285814
14.146096229553223,-169.53173019168298,-1112.9516676337435,268.8162135991268
14.164813041687012,-169.5707246239297,-1113.2619858204482,268.7835341080199
14.183617353439331,-169.6281272317472,-1111.6127848751448,268.7340606440504
14.202352523803711,-169.7066807949376,-1111.696575383924,268.7545083444048
14.221069097518921,-169.68180537885667,-1111.774172674986,268.76969772759054
14.239785194396973,-169.65901481482553,-1111.8443780314344,268.7781850003637
14.258493185043335,-169.6386906525682,-1111.9058604133072,268.78516929207944
14.277216911315918,-169.62125558758436,-1111.9571442378588,268.7905729932917
14.29596734046936,-169.60717722102086,-1112.0201287482917,268.7943496375683
14.314775705337524,-169.5969721346665,-1112.0741821241452,268.7964925823942
14.333535194396973,-169.59121030677852,-1112.1179382208659,268.7970450918213
14.35226058959961,-169.59051989647503,-1112.1498955651487,268.79615365132616
14.371040105819702,-169.59559242652102,-1112.1684057916757,268.79405362896034
14.389795064926147,-169.60183893795545,-1112.171661150933,268.7910874690338
14.408538103103638,-169.6086684624071,-1112.157681031837,268.7877255399075
14.427295446395874,-169.6153339107971,-1112.1242974469162,268.7845899539959
14.446033954620361,-169.62090749207135,-1112.069139434461,268.78248171098716
14.464761734008789,-169.62425301661415,-1111.9896163420622,268.782411551185
14.483501195907593,-169.6239947356053,-1112.0147384398565,268.785634944994
14.50225567817688,-168.91021601594278,-1112.035949310252,268.78771005169995
14.520977258682251,-168.8587767250819,-1112.0534010859365,268.7889108733072
14.539725065231323,-168.80542751909894,-1112.0673359562363,268.78962593150345
14.558452606201172,-168.74987664353435,-1112.0781009924317,268.7899230407984
14.57719349861145,-168.69178471393099,-1112.0861647760698,268.78987971063214
14.595982789993286,-168.6307585467917,-1112.090567177922,268.78958171550306
14.614723205566406,-168.56634430760002,-1112.0916595148403,268.7891209910437
14.633508920669556,-168.4980199076548,-1112.0899076011053,268.7885927176585
14.652228116989136,-168.4251865750668,-1112.0859084035026,268.788088655414
14.67097783088684,-168.34715951830316,-1112.0804085776244,268.7876909905109
14.689740180969238,-168.26351422365966,-1112.0743250727369,268.78746455860943
14.708469152450562,-168.17383727440983,-1112.068768008797,268.7874471598562
14.72726321220398,-168.07773749865066,-1112.0650660462557,268.7876376402468
14.745980978012085,-167.97485949908932,-1112.064794487042,268.78798136886417
14.76471471786499,-167.86489993125434,-1112.069806363374,268.7883526900428
14.783442735671997,-168.45589326000464,-1112.0734775582753,268.78853387304605
14.80217957496643,-168.42560507627545,-1112.0759794414769,268.78858879446915
14.820914506912231,-168.396726966355,-1112.0774846651793,268.78856732254656
14.83963394165039,-168.36948026283872,-1112.0781612457756,268.78849674861607
14.858400583267212,-168.3441205041257,-1112.0781652626652,268.7884016624706
14.877118349075317,-168.32094289013864,-1112.0776319617714,268.7883031259265
14.89584493637085,-168.30028851302845,-1112.076769614028,268.78821788662145
14.914596557617188,-168.28255146005702,-1112.0757769539737,268.78815767966
14.933330535888672,-168.26818689688383,-1112.0748349108317,268.78812867712674
14.952041864395142,-168.25772025167166,-1112.0740966779872,268.7881313452409
14.970748901367188,-168.25175763389623,-1112.073675884678,268.7881607022229
14.989493370056152,-168.2509738612453,-1112.0736326054741,268.78820711179713
15.008244514465332,-168.25611630036767,-1112.0739569119191,268.78825777525986
15.027052402496338,-168.2680082204821,-1112.0745496362968,268.788299117594
15.04578948020935,-168.28755146857495,-1112.0751999795805,268.7883203008427
15.064533472061157,-168.31572823772964,-1112.0755595539943,268.7883181415627
15.083285570144653,-168.30638390291136,-1112.075698353709,268.78830375946376
15.102036714553833,-168.2984358246871,-1112.0756796145245,268.7882847571301
15.12081265449524,-168.29188308190922,-1112.075559277814,268.7882659194357
15.139586448669434,-168.28670993651394,-1112.0753858132832,268.78825053082363
15.158324718475342,-168.2828825653398,-1112.0752005166578,268.7882404553805
15.177045345306396,-168.2803452103532,-1112.0750384203168,268.78823627734414
15.195769309997559,-168.27901565684155,-1112.0749230074027,268.78823750339234
15.21451735496521,-168.27877993662716,-1112.0748660776312,268.7882428249745
15.233240365982056,-166.3942341435016,-1112.0748681554178,268.788250434831
15.252228260040283,-166.27000173629028,-1112.0749195872465,268.788258374137
15.271079778671265,-166.1378846764499,-1112.0750025007512,268.7882648855979
15.289813995361328,-165.9970120641302,-1112.0750938271033,268.78826873718464
15.308545351028442,-165.84640511504767,-1112.0751696214488,268.78826946797966
15.327272891998291,-165.68496490801869,-1112.0752109537923,268.78826749133873
15.346044063568115,-165.51145913731494,-1112.0752116854062,268.7882639707051
15.364804029464722,-165.32450786395395,-1112.075188494167,268.78826035931456
15.383582830429077,-165.12571612802347,-1112.0751545035307,268.7882574659713
15.402317523956299,-164.91420148157923,-1112.075119496131,268.7882556465607
15.421048879623413,-164.68902270822392,-1112.0750901773524,268.78825496170236
15.439751386642456,-164.4491768930046,-1112.0750704682903,268.7882552570943
15.458460092544556,-164.19359651484885,-1112.075061798399,268.7882562438752
15.477160692214966,-163.92114660181522,-1112.0750633569378,268.7882575749773
15.495916366577148,-164.83587889135916,-1112.0750727135737,268.788258913083
15.514680624008179,-166.4916041507831,-1112.0750864893032,268.78825998562354
15.533421039581299,-166.49809548460186,-1112.0751010448955,268.78826062234305
15.55222463607788,-166.51330173448932,-1112.0751131420723,268.78826077222345
15.571001529693604,-166.5383295383586,-1112.0751205181602,268.78826049799846
15.589715719223022,-166.5744173699738,-1112.0751222975641,268.78825994871937
15.608423471450806,-166.62295152030222,-1112.0751191426384,268.788259314102
15.627507209777832,-166.68548396112112,-1112.075113021895,268.7882587689529
15.64626693725586,-166.7637522827082,-1112.0751064443275,268.78825842216946
15.664995908737183,-166.85970191062515,-1112.0751009743383,268.7882582930264
15.683739423751831,-166.97530096279857,-1112.0750974057255,268.7882583481634
15.702472686767578,-167.11270759487985,-1112.0750959330317,268.78825852827026
15.721256017684937,-167.27428658732362,-1112.0750963167436,268.78825876604145
15.740033626556396,-167.46262723361153,-1112.075098039974,268.78825899997133
15.758753776550293,-167.68056261486242,-1112.0751004560786,268.788259183711
15.777474641799927,-166.7259334558532,-1112.0751029293547,268.7882592909599
15.796205282211304,-166.85193709348613,-1112.0751049437401,268.78825931615177
15.814993143081665,-166.87595928966633,-1112.075106174036,268.78825927152025
15.833751678466797,-166.90115021000398,-1112.0751065159786,268.7882591814654
15.852482080459595,-166.92700677503828,-1112.075106074239,268.7882590754149
15.871248245239258,-166.95291859081692,-1112.075105111311,268.78825898057596
15.8899667263031,-166.9781520055398,-1112.0751039655609,268.78825891603304
15.908668994903564,-167.00183203788902,-1112.0751029537557,268.7882588894951
15.927459716796875,-167.02292190967356,-1112.0751022825464,268.7882588975313
15.94619107246399,-167.0401998848046,-1112.0751020050943,268.788258929222
15.964928150177002,-167.0522330830832,-1112.0751020738112,268.7882589716351
15.983649730682373,-167.05736189110218,-1112.0751023850169,268.7882590131999
16.00236415863037,-167.053672177517,-1112.0751028151492,268.78825904552855
16.02106809616089,-167.03896455019654,-1112.0751032483763,268.788259064161
16.039827585220337,-167.01072037130223,-1112.0751035956032,268.7882590684403
16.05853581428528,-166.96606422173153,-1112.075103804905,268.78825906075565
16.077266454696655,-166.98207293945677,-1112.075103863275,268.7882590454087
16.09598469734192,-166.99074866252147,-1112.0751037912441,268.7882590273592
16.11470055580139,-166.99840128737847,-1112.0751036323913,268.7882590110818
16.13344430923462,-167.00488469253676,-1112.0751034401521,268.78825899972287
16.15217113494873,-167.01007655370333,-1112.0751032645464,268.7882589946767
16.170995235443115,-167.01388708456244,-1112.0751031414286,268.78825899561673
16.18972659111023,-167.01626942316395,-1112.0751030864865,268.7882590009223
16.208436012268066,-167.01723191551562,-1112.0751030953352,268.7882590083508
16.227216482162476,-167.01685258257174,-1112.0751031495208,268.7882590157388
16.24596905708313,-167.0152960957562,-1112.075103225816,268.7882590215065
16.264682292938232,-167.01283362993442,-1112.0751033026165,268.7882590248313
16.28343105316162,-167.0098650791899,-1112.0751033637898,268.7882590256067
16.302195072174072,-167.00694460596807,-1112.0751034003658,268.7882590242786
16.32091212272644,-167.0048099430195,-1112.0751034104985,268.78825902161975
16.339640855789185,-167.00441591446733,-1112.075103398158,268.78825901849837
16.358358144760132,-167.00697269398307,-1112.0751033710417,268.78825901568126
16.377076625823975,-167.00863267761815,-1112.075103338226,268.7882590136994
16.395774602890015,-167.00982494529129,-1112.0751033080248,268.7882590127887
16.41447687149048,-167.01058652248545,-1112.0751032864002,268.7882590129026
16.433195114135742,-167.01096664448204,-1112.0751032761502,268.78825901378127
16.451959133148193,-167.01102598386726,-1112.0751032769238,268.7882590150549
16.470693826675415,-167.0108352438209,-1112.0751032859569,268.78825901635076
16.489474534988403,-167.01047296519806,-1112.075103299255,268.78825901737935
16.508196115493774,-167.01002236851025,-1112.0751033128497,268.78825901798126
16.52691102027893,-167.00956702090613,-1112.0751033237384,268.78825901813076
16.545645475387573,-167.0091850825828,-1112.0751033302665,268.78825901790566
16.564356803894043,-167.00894184609268,-1112.0751033321098,268.7882590174439
16.583106756210327,-167.00888029721955,-1112.0751033299975,268.7882590168998
16.601821660995483,-167.00900934330295,-1112.0751033253064,268.78825901640784
16.620545148849487,-167.00928930332185,-1112.075103319627,268.7882590160604
16.639264345169067,-167.00961419591218,-1112.0751033143918,268.78825901589784
16.658005952835083,-167.0097902960408,-1112.0751033106148,268.7882590159123
16.676732063293457,-167.00986747060227,-1112.075103308774,268.78825901605984
16.695452213287354,-167.009870305623,-1112.0751033088243,268.7882590162779
16.714159727096558,-167.00982255783217,-1112.075103310319,268.7882590165029
16.732866048812866,-167.00974628538884,-1112.075103312597,268.7882590166843
16.75158715248108,-167.00966097215695,-1112.0751033149752,268.78825901679295
16.770317792892456,-167.00958268737935,-1112.07510331691,268.78825901682245
16.789040327072144,-167.0095233355248,-1112.0751033180868,268.78825901678533
16.807761430740356,-167.00949006665908,-1112.0751033184358,268.7882590167056
16.826491355895996,-167.00948493637594,-1112.0751033180823,268.7882590166106
16.84522294998169,-167.00950492662884,-1112.07510331727,268.7882590165242
16.863994359970093,-167.00954246533126,-1112.075103316281,268.78825901646286
16.882713794708252,-167.00958660987206,-1112.0751033153663,268.78825901643376
16.901424407958984,-167.00962509431002,-1112.0751033147035,268.7882590164355
16.920145750045776,-167.00964748037586,-1112.0751033143756,268.78825901646053
16.93900752067566,-167.0096496993401,-1112.0751033143745,268.788259016498
16.957757234573364,-167.0096403262267,-1112.0751033146253,268.7882590165371
16.97649574279785,-167.00962518326833,-1112.0751033150154,268.78825901656893
16.9952552318573,-167.00960884177803,-1112.075103315428,268.7882590165883
17.0139639377594,-167.0095945940411,-1112.0751033157685,268.788259016594
17.032690048217773,-167.00958448128455,-1112.0751033159802,268.78825901658803
17.051440715789795,-167.00957938189308,-1112.0751033160473,268.7882590165744
17.070222854614258,-167.0095791615273,-1112.0751033159895,268.78825901655784
17.0889732837677,-167.00958288326083,-1112.0751033158497,268.78825901654267
17.107683658599854,-167.00958907103424,-1112.075103315677,268.7882590165318
17.126394271850586,-167.0095960133448,-1112.0751033155168,268.7882590165265
17.145097017288208,-167.00960208579255,-1112.0751033154,268.7882590165267
17.163850784301758,-167.00960606049,-1112.0751033153413,268.78825901653096
17.182575225830078,-167.0096073571978,-1112.0751033153397,268.78825901653744
17.201358556747437,-167.00960617472367,-1112.0751033153822,268.7882590165442
17.220113039016724,-167.00960342101354,-1112.075103315449,268.7882590165498
17.239222526550293,-167.00960033579176,-1112.0751033155207,268.78825901655324
17.257972478866577,-167.00959766976283,-1112.0751033155802,268.78825901655426
17.276714086532593,-167.0095958355291,-1112.075103315618,268.7882590165533
17.295424461364746,-167.00959496844584,-1112.0751033156307,268.78825901655097
17.3142032623291,-167.00959499340613,-1112.0751033156216,268.78825901654807
17.332926511764526,-167.00959569421423,-1112.0751033155975,268.7882590165454
17.35165762901306,-167.0095967817023,-1112.0751033155675,268.7882590165435
17.37037444114685,-167.00959795638062,-1112.0751033155395,268.78825901654255
17.389118194580078,-167.0095989612553,-1112.0751033155186,268.7882590165426
17.40786623954773,-167.00959962060338,-1112.075103315508,268.78825901654335
17.426576614379883,-167.00959986108728,-1112.0751033155077,268.78825901654443
17.44529891014099,-167.0095997127736,-1112.0751033155148,268.7882590165456
17.464043378829956,-167.00959928959253,-1112.0751033155263,268.7882590165466
17.482805013656616,-167.00959875175215,-1112.0751033155389,268.7882590165472
17.50153398513794,-167.0095982568874,-1112.0751033155493,268.7882590165474
17.520281314849854,-167.0095979126123,-1112.0751033155561,268.7882590165473
17.539059162139893,-167.009597751067,-1112.0751033155584,268.78825901654676
17.557776927947998,-167.00959775648727,-1112.075103315557,268.7882590165463
17.576520442962646,-167.00959788455114,-1112.075103315553,268.78825901654585
17.595561027526855,-167.00959807895816,-1112.0751033155477,268.7882590165455
17.614322662353516,-167.00959828466162,-1112.0751033155427,268.78825901654534
17.633033514022827,-167.00959845735812,-1112.075103315539,268.78825901654534
17.651753425598145,-167.00959856906852,-1112.075103315537,268.7882590165455
17.67047667503357,-167.00959860991438,-1112.075103315537,268.7882590165457
17.68922781944275,-167.00959858649168,-1112.0751033155384,268.78825901654585
17.707952976226807,-167.0095985175509,-1112.0751033155402,268.7882590165461
17.726762294769287,-167.00959842798179,-1112.0751033155425,268.7882590165462
17.74549651145935,-167.00959834232899,-1112.075103315544,268.78825901654625
17.764230489730835,-167.00959827917808,-1112.0751033155454,268.7882590165462
17.783004999160767,-167.00959824767315,-1112.075103315546,268.78825901654614
17.801758289337158,-167.00959824705888,-1112.0751033155457,268.7882590165461
17.820489168167114,-167.00959826935528,-1112.0751033155452,268.78825901654596
17.83925461769104,-167.00959830390784,-1112.0751033155443,268.78825901654585
17.857969045639038,-167.00959834040253,-1112.0751033155434,268.78825901654585
17.87670874595642,-167.00959837079265,-1112.0751033155427,268.78825901654585
17.895453929901123,-167.0095983902483,-1112.0751033155423,268.7882590165459
17.914159059524536,-167.0095983972874,-1112.0751033155423,268.78825901654596
17.93286371231079,-167.00959839328272,-1112.0751033155425,268.78825901654596
17.951594829559326,-167.00959838156365,-1112.075103315543,268.78825901654596
17.97030544281006,-167.00959836634027,-1112.0751033155432,268.788259016546
17.98903489112854,-167.0095983516635,-1112.0751033155436,268.788259016546
18.0077486038208,-167.00959834060436,-1113.5367630945077,268.788259016546
18.0264732837677,-167.00959833477918,-1113.634207079772,268.78825901654596
18.04557180404663,-167.00959833427586,-1113.7381473307205,268.78825901654596
18.064330101013184,-167.00959833794903,-1113.8490169317322,268.78825901654596
18.083104372024536,-167.00959834396744,-1113.967277839478,268.78825901654596
18.101831674575806,-167.00959835042798,-1114.09342280774,267.86904174877617
18.12057328224182,-167.00959835583282,-1114.227977440553,267.80776059759154
18.13929772377014,-167.00959835929447,-1114.3715023822201,267.7423940363279
18.158027410507202,-167.00959836055395,-1114.524595653332,267.67266970431336
18.176759004592896,-167.00959835987135,-1114.6878951425178,267.5982970834978
18.195495128631592,-167.00959835784624,-1114.8620812643162,267.51896628796135
18.214205265045166,-167.00959835521684,-1115.0478797942346,267.43434677272234
18.23292350769043,-167.00959835267912,-1115.246064892814,267.34408595646744
18.251628398895264,-167.0095983507535,-1115.4574623312988,267.2478077524622
18.270360708236694,-167.0095983497144,-1115.682952932349,267.14511100152333
18.289088010787964,-167.00959834958442,-1114.4618164611722,267.03556780052185
18.307818174362183,-167.00959835018313,-1114.5234866856167,266.9187217194536
18.32653307914734,-167.00959835121006,-1114.582771992673,266.79408589964737
18.345260620117188,-167.009598352339,-1114.6390803034699,266.6611410251875
18.36399817466736,-167.00959835329832,-1114.6917511949189,266.5193331590969
18.382715463638306,-167.00959835392035,-1114.7400494186152,267.2872887030367
18.401467084884644,-167.0095983541532,-1114.7831578593402,267.24850516665407
18.42018485069275,-167.00959835404126,-1114.8201698872592,267.2112214712582
18.43897795677185,-167.00959835369105,-1114.8500810542619,267.17580996692027
18.45771551132202,-167.00959835323349,-1114.8717800809904,267.14268598442743
18.476463317871094,-167.00959835279096,-1114.8840390768887,267.112311911156
18.495218753814697,-167.00959835245393,-1114.8855029310603,267.085201619369
18.513953924179077,-167.00959835226973,-1114.8746778068487,267.0619252758121
18.53267192840576,-167.00959835224245,-1114.849918667784,267.0431145637684
18.551414728164673,-167.00959835234173,-1114.8094157568835,267.0294683511889
18.5702006816864,-167.0095983525169,-1114.7511799451854,267.0217588411665
18.58891749382019,-167.0095983527124,-1114.7704708441197,267.02083824387614
18.6076500415802,-167.009598352881,-1114.7869364546864,267.02764601217103
18.626380920410156,-167.00959835299238,-1114.8005474188208,267.04321668633924
18.645106077194214,-167.00959835303593,-1114.8113118931774,267.0686883970827
18.66383934020996,-167.00959835301845,-1114.8192826063946,267.1053120796151
18.68253779411316,-167.00959835295833,-1114.8245648189136,267.09318030472036
18.70126485824585,-167.00959835287867,-1114.8273252828849,267.08282531392473
18.720017671585083,-167.00959835280116,-1114.82780230926,267.07426557010257
18.73875403404236,-167.00959835274182,-1114.8263170595933,267.067495943648
18.75748085975647,-167.00959835270905,-1114.8232861915,267.06248327426266
18.77620530128479,-167.0095983527036,-1114.8192359991408,267.0591613651365
18.794966220855713,-167.00959835272022,-1114.8148182036796,267.0574253481876
18.813743829727173,-167.00959835275026,-1114.8108275634684,267.05712535301274
18.832464933395386,-167.0095983527841,-1114.8082214898473,267.05805940562897
18.851227283477783,-167.00959835281358,-1114.808141872045,267.059965475925
18.869966983795166,-167.0095983528334,-1114.8119393338354,267.0625125849089
18.88870930671692,-167.00959835284146,-1114.8147038998165,267.0652908743111
18.90746259689331,-167.00959835283882,-1114.8165550628253,267.0678005317871
18.92618441581726,-167.0095983528286,-1114.8176222390919,267.069439454817
18.944907903671265,-167.00959835281478,-1114.8180429288195,267.06948952533253
18.96364116668701,-167.00959835280122,-1114.8179602836483,267.06710135504704
18.982394695281982,-167.00959835279076,-1114.8175199812972,267.06536275840216
19.001095294952393,-167.00959835278485,-1114.8168662945245,267.064198588034
19.019851207733154,-167.00959835278374,-1114.8161372268758,267.06352745589606
19.038553714752197,-167.00959835278655,-1114.815458571361,267.0632628900459
19.05728006362915,-167.00959835279173,-1114.8149367300184,267.06331486443145
19.07600450515747,-167.0095983527976,-1114.8146501120768,267.06359176438446
19.094724416732788,-167.00959835280275,-1114.8146389059698,267.0640028587976
19.11350679397583,-167.00959835280625,-1114.8148929954702,265.59352783526344
19.132230520248413,-167.00959835280773,-1114.8153377625117,265.49589239723906
19.150977849960327,-167.00959835280733,-1114.8158174885427,265.39162085866
19.169679403305054,-167.00959835280563,-1114.8160760321896,265.2802280769101
19.188387632369995,-167.0095983528032,-1114.8161675076813,265.1612238904167
19.207164764404297,-167.00959835280085,-1114.8161416706719,265.034118780992
19.225914001464844,-167.009598352799,-1114.8160429661104,264.8984307360704
19.244921684265137,-167.00959835279795,-1114.8159096352633,264.7536934834529
19.263681173324585,-167.00959835279772,-1114.815772925371,264.5994662920133
19.282419443130493,-167.00959835279818,-1114.8156564549759,264.435073194254
19.30113387107849,-167.0095983527991,-1114.815575799006,264.259798168002
19.31984829902649,-167.00959835280008,-1114.8155383704811,264.98889633760894
19.33859157562256,-167.009598352801,-1114.8155436904226,264.8506052341132
19.357388734817505,-167.0095983528016,-1114.8155841544497,264.70309125875855
19.376102924346924,-167.00959835280185,-1114.8156464239412,264.54572455838354
19.394811391830444,-167.0095983528018,-1114.815713591806,262.7457245583835
19.41355609893799,-167.00959835280153,-1114.8157682982282,262.5558710065915
19.432311296463013,-167.00959835280113,-1114.8157970006096,262.3598695805483
19.45108437538147,-167.00959835280074,-1114.8157956347472,262.15775282867423
19.469802141189575,-167.0095983528004,-1114.8157769415843,258.7390709568802
19.488526105880737,-167.0095983528002,-1114.8157509038444,254.99498936418578
19.507288932800293,-167.00959835280017,-1114.815724852723,251.99271477878628
19.526074409484863,-167.00959835280025,-1114.8157036451637,251.1323337149674
19.544784545898438,-167.0095983528004,-1114.8156899124904,250.22424306373497
19.56377363204956,-167.00959835280054,-1114.8156843782983,249.26589484851644
19.58253526687622,-167.0095983528007,-1114.815686239853,248.25461629213393
19.601253271102905,-167.00959835280082,-1114.8156936025762,246.27159071160952
19.619960069656372,-167.00959835280085,-1114.8157039513824,244.00566428910227
19.638700008392334,-167.00959835280085,-1114.8157146354465,242.61600155943486
19.657472133636475,-167.0095983528008,-1114.8157233341797,242.1024621421843
19.67620611190796,-167.00959835280074,-1114.815728461529,241.9024621421843
19.6949725151062,-167.00959835280068,-1114.8157294528437,240.5129113144377
19.71369743347168,-167.00959835280065,-1114.8157268631514,239.0433806682941
19.732444286346436,-167.00959835280062,-1114.815722187321,237.48894807414385
19.751197576522827,-167.00959835280062,-1114.8157172908257,239.05487794575345
19.769911289215088,-167.00959835280062,-1114.8157133141083,241.05853647547033
19.788637161254883,-167.00959835280065,-1114.815710808126,242.46243890716835
19.807415008544922,-167.00959835280068,-1114.8157098718193,241.8270871823938
19.82615065574646,-167.0095983528007,-1114.81571028693,241.20673741355554
19.84491801261902,-167.0095983528007,-1114.815711645226,240.60557037021027
19.863670587539673,-167.0095983528007,-1114.8157134630212,240.02821540498988
19.8823823928833,-167.0095983528007,-1114.815715277899,239.47978867918025
19.901089906692505,-167.0095983528007,-1114.8157167229206,240.04510792445893
19.919790744781494,-167.0095983528007,-1114.8157175743565,239.78107083348274
19.93853497505188,-167.0095983528007,-1114.8157177702838,238.6331422223816
19.957263231277466,-167.00959835280074,-1114.8157173993575,240.20868503720703
19.97598433494568,-167.00959835280074,-1114.8157166618794,240.09576656354187
19.99472975730896,-167.00959835280074,-1114.8157158091483,240.06795691348216
20.01353096961975,-167.00959835280077,-1114.8157150722147,240.13626199649468
20.032240390777588,-167.00959835280077,-1114.8157145978741,240.31274959131807
20.051045894622803,-167.00959835280077,-1114.815714418344,240.3966077010224
20.069769144058228,-167.00959835280077,-1114.81571449196,240.3524791160592
20.088489294052124,-167.00959835280077,-1114.815714737549,240.21181512998527
20.107255697250366,-167.00959835280077,-1114.8157150619309,240.10413032649134
20.125993967056274,-167.00959835280077,-1114.8157153802645,242.2903478322543
20.144735097885132,-167.00959835280077,-1114.815715629267,242.4026663297239
20.16347026824951,-167.00959835280077,-1114.8157157736832,242.5609630580395
20.182188987731934,-167.00959835280077,-1114.8157158067359,242.76637468329676
20.200928926467896,-167.00959835280077,-1114.8157157456567,242.9477924672193
20.219658136367798,-167.0095983528008,-1114.8157156237432,243.15890724280175
20.238364219665527,-167.0095983528008,-1114.8157154806406,243.46062491082975
20.257108688354492,-167.0095983528008,-1114.8157153527259,243.6774209024046
20.275851249694824,-167.0095983528008,-1114.8157152654492,243.9161978583288
20.29457402229309,-167.0095983528008,-1114.8157152292026,244.17274725465188
20.313309907913208,-167.0095983528008,-1114.8157152396686,244.44184627186235
20.332029581069946,-167.0095983528008,-1114.8157152824547,244.71711938389865
20.350754976272583,-167.0095983528008,-1114.815715340062,245.0051534960904
20.369465112686157,-167.0095983528008,-1114.8157153966024,245.31533178809246
20.3881733417511,-167.0095983528008,-1114.8157154405392,245.65556623196625
20.406898736953735,-167.0095983528008,-1114.8157154657797,243.76593731409733
20.425637006759644,-167.0095983528008,-1114.8157154714806,243.8643099462202
20.444364547729492,-167.0095983528008,-1114.8157154609617,243.9617528539866
20.463186502456665,-167.0095983528008,-1114.8157154401135,244.0551388403831
20.48191547393799,-167.0095983528008,-1114.8157154156722,244.14105645085553
20.50063133239746,-167.0095983528008,-1114.8157153936731,244.22060738309796
20.519356727600098,-167.0095983528008,-1114.8157153783352,244.29138739245107
20.538055658340454,-167.0095983528008,-1114.815715371515,244.3467715578925
20.556867361068726,-167.0095983528008,-1114.8157153727675,244.39139493492505
20.575592041015625,-167.0095983528008,-1114.815715379922,244.42307474003147
20.594294786453247,-167.0095983528008,-1114.81571538997,244.43976323905676
20.613008975982666,-167.0095983528008,-1114.81571539999,244.43962437020303
20.631739854812622,-167.0095983528008,-1114.8157154078256,244.42112470262333
20.65045976638794,-167.0095983528008,-1114.8157154123433,244.38218944972553
20.669214010238647,-167.0095983528008,-1114.8157154133926,244.31997996050103
20.68794059753418,-167.0095983528008,-1114.815715411583,244.2309408757367
20.706658124923706,-167.0095983528008,-1114.8157154079697,244.26194111317935
20.72542428970337,-167.0095983528008,-1114.8157154037356,244.2884498576433
20.744144916534424,-167.0095983528008,-1114.8157153999207,244.31022965788705
20.76290488243103,-167.0095983528008,-1114.815715397241,244.32723571238733
20.781630039215088,-167.0095983528008,-1114.8157153960124,244.33964766315611
20.800341367721558,-167.0095983528008,-1114.8157153961683,244.34758368182665
20.81909966468811,-167.0095983528008,-1114.8157153973573,244.35133010111838
20.837827920913696,-167.0095983528008,-1114.8157153990799,244.3516340040001
20.85655117034912,-167.0095983528008,-1114.815715400834,244.34898327527173
20.875338077545166,-169.40895846261407,-1114.815715402228,244.34404384428774
20.89406657218933,-169.56891580326828,-1114.8157154030453,244.33766255130314
20.912795782089233,-169.7395369666328,-1114.8157154032492,244.33086509670983
20.931524991989136,-169.9215328742216,-1114.815715402944,244.32484778964894
20.950246334075928,-170.1156618423163,-1114.8157154023174,244.32102501231049
20.969006776809692,-170.32273274161736,-1114.8157154015792,243.36635968161042
20.987778186798096,-170.5436083675385,-1114.8157154009123,243.30872093533532
21.006492614746094,-170.77920903518768,-1114.8157154004416,243.24517292347906
21.025216579437256,-171.03051641401348,-1114.815715400222,243.1756211278681
21.044003009796143,-171.2985776180943,-1114.8157154002422,243.09998055920016
21.062720775604248,-171.58450956911386,-1114.8157154004423,243.01816354898767
21.081496953964233,-171.8895036502014,-1114.8157154007376,242.93006460804312
21.100210189819336,-172.2148306700281,-1114.815715401042,242.83556333645757
21.118910312652588,-172.56184615784323,-1114.8157154012877,242.7345122188135
21.13764214515686,-172.93199601151272,-1114.8157154014348,245.4444032852135
21.15637469291687,-170.92746241228025,-1114.815715401475,245.51743128587628
21.1751492023468,-171.02869600892467,-1114.8157154014248,245.59565711531553
21.193915605545044,-171.12601468930174,-1114.8157154013168,245.679523419583
21.21264934539795,-171.21844653747974,-1114.815715401188,245.76943397444123
21.231366634368896,-171.3049074483636,-1114.815715401071,245.865739720094
21.250063180923462,-171.38419048876673,-1114.8157154009875,246.92345570143368
21.269079446792603,-171.45495433857667,-1114.8157154009484,247.16059543608856
21.28791069984436,-171.51571073664587,-1114.8157154009507,247.4173870694721
21.306641101837158,-171.5648108500764,-1114.8157154009848,247.69553467920497
21.32536792755127,-171.60043047914724,-1114.8157154010357,247.9968622492941
21.344096660614014,-171.62055400321748,-1114.8157154010885,248.32332102863373
21.3628146648407,-171.62295696549106,-1114.8157154011315,248.67699819394346
21.381579160690308,-171.60518718651036,-1114.8157154011578,249.06012709967015
21.400322675704956,-171.56454428760918,-1114.8157154011653,249.47509801721768
21.41910433769226,-171.49805749626023,-1114.8157154011571,247.10677121836548
21.43784475326538,-171.4024615952434,-1114.815715401139,247.21759574724229
21.456549882888794,-171.43412820744095,-1114.8157154011164,247.33094004466665
21.475273609161377,-171.4611570206754,-1114.8157154010958,247.44662557329005
21.494025230407715,-171.48349984276695,-1114.8157154010812,247.56443238353717
21.51280665397644,-171.50117006311942,-1114.8157154010742,247.68409894414356
21.531865119934082,-171.5142542374365,-1114.8157154010742,247.80532289241356
21.550621509552002,-171.52292515401447,-1114.81571540108,247.8641140384789
21.569339275360107,-171.52745654171034,-1114.8157154010887,247.91101527863827
21.588078022003174,-171.52823959538128,-1114.8157154010978,247.94392382591602
21.60679292678833,-171.52580151173495,-1114.8157154011053,247.96048310236344
21.62548542022705,-171.5208262472408,-1114.81571540111,247.95805782590136
21.64419198036194,-171.51417773017567,-1114.8157154011117,247.93370694571922
21.662968397140503,-171.50692578115465,-1114.8157154011103,247.88415419583762
21.681697368621826,-171.5003750207976,-1114.8157154011074,247.80575600224878
21.70048999786377,-171.49609706967684,-1114.8157154011033,247.6944665345842
21.71928310394287,-171.49596637457128,-1114.8157154010996,247.7336462223321
21.73804497718811,-171.50220002652648,-1114.8157154010971,247.76804958733808
21.756798267364502,-171.50673814779887,-1114.8157154010958,247.7971902235162
21.775521755218506,-171.50977688960708,-1114.8157154010958,247.82056120019791
21.794270038604736,-171.51152869272977,-1114.8157154010964,247.83763645464197
21.812999725341797,-171.5122192680371,-1114.815715401098,247.8478722886752
21.8317449092865,-171.51208360341045,-1114.8157154010996,247.85070891509264
21.850464344024658,-171.51136083337016,-1114.815715401101,247.84981524020023
21.869195222854614,-171.51028778614747,-1114.8157154011021,247.84573523763768
21.888003826141357,-171.50909099886525,-1114.8157154011021,247.83918933175244
21.906768798828125,-171.50797696467396,-1114.815715401102,247.8311030803784
21.92552089691162,-171.50712034583617,-1114.8157154011014,247.82263943067684
21.944245100021362,-171.5066498535469,-1114.815715401101,247.815234929674
21.96300768852234,-171.50663145837305,-1114.8157154011003,247.8106403119298
21.98173236846924,-171.50704855421142,-1114.8157154010996,247.81096593257516
22.000475883483887,-171.5077786531804,-1114.8157154010994,247.81873255910793
22.019272804260254,-171.508566138421,-1114.8157154010994,247.82440498155964
22.037984132766724,-171.50899054588066,-1114.8157154010994,247.82816200784106
22.05669617652893,-171.5091407057527,-1114.8157154010996,247.8302267934627
22.07537817955017,-171.50909829349575,-1114.8157154010999,247.8308711663471
22.09410810470581,-171.50893626688014,-1114.8157154011,247.8304201471274
22.11286735534668,-171.50871740013633,-1114.8157154011003,247.82925667102424
22.131600379943848,-171.50849298658474,-1114.8157154011003,247.82782652141967
22.150346755981445,-171.50830179679906,-1114.8157154011003,247.8263606068343
22.169069290161133,-171.5081693975092,-1114.8157154011,247.82506896478074
22.18779182434082,-171.5081079574188,-1114.8157154011003,247.82412760698261
22.206520557403564,-171.50811669026842,-1114.8157154011,247.8236625754229
22.225247621536255,-171.5081831132306,-1114.8157154011,247.82373078507266
22.24395442008972,-171.50828533054283,-1115.9613343743601,247.82429717543255
22.262672662734985,-171.50839558868748,-1116.0377089725773,247.82520763299942
22.281388998031616,-171.5084853909859,-1116.1191752106758,247.82615707969435
22.30012583732605,-171.50853250683957,-1116.2060725313142,247.82665204773346
22.318962335586548,-171.50853026473413,-1116.298763006662,247.82680185214502
22.337695360183716,-171.50849957932434,-1116.3976328470328,247.82671117509864
22.356417179107666,-171.50845683756248,-1116.503094010095,247.82647680054103
22.3751859664917,-171.5084140738336,-1116.6155859173612,247.82618384282065
22.393909692764282,-171.50837926096384,-1116.735577285112,247.82590142253352
22.41269040107727,-171.50835671835236,-1116.8635680773796,247.8256777393008
22.431411504745483,-171.50834763380354,-1117.0000915891314,247.82553448715953
22.450149536132812,-171.50835068960384,-1117.1457166683333,247.82547941251457
22.468884706497192,-171.50836277574345,-1117.301050086149,247.82550677569682
22.48760986328125,-171.50837976363178,-1117.4667390651523,247.82559872027775
22.5063316822052,-171.50839730185598,-1117.6434739760891,247.8257277966014
22.525076389312744,-171.5084115810977,-1116.6863722411617,247.8258609307033
22.543798208236694,-171.50841999780135,-1116.7347080989487,247.82596518105467
22.562500715255737,-171.5084216250756,-1116.7811747073733,247.82601568425835
22.581204414367676,-171.50841737401495,-1116.8253080071531,247.82600625789595
22.59998631477356,-171.5084096984933,-1116.8665903722092,247.82596320524013
22.61872124671936,-171.50840166074389,-1116.9044455299122,247.82590729544646
22.63743782043457,-171.50839513283853,-1116.9382330421042,247.82585370346962
22.65618896484375,-171.50839101919024,-1116.9672423109046,247.82581216366486
22.67489767074585,-171.50838948221403,-1116.9906860704743,247.82578738505453
22.693647146224976,-171.5083901636307,-1117.0076933228318,246.3040606235523
22.712367057800293,-171.50839239331592,-1117.0173016725284,248.44901544093224
22.731151819229126,-171.50839537728342,-1117.0184490114216,248.49058083785042
22.74985647201538,-171.50839835646204,-1117.009964500961,248.5349209328728
22.768571615219116,-171.5084007285099,-1116.990558795282,248.58221521001786
22.787286043167114,-171.50840212616848,-1116.9588134439573,248.63265630933387
22.80603313446045,-171.50840244778934,-1116.9131694084817,248.68645154351603
22.82478904724121,-171.5084018389021,-1116.9282892196363,248.74382425103687
22.843527793884277,-171.5084006283088,-1116.941194627682,248.80501485570235
22.862244129180908,-171.50839922852438,-1116.9518626223696,248.87028146713195
22.880945920944214,-171.508398018825,-1116.9602995967173,248.93989981441433
22.899646282196045,-171.50839724018047,-1116.9665468783508,249.01416225502595
22.918348789215088,-171.50839694547625,-1116.970686968247,249.09337925233123
22.937093496322632,-171.50839706631874,-1116.9728505633234,249.1778809555887
22.955827474594116,-171.50839746946065,-1116.9732244468178,249.26801887505027
22.97456455230713,-171.50839800194373,-1116.9720603385738,250.8858868000536
22.993286848068237,-171.50839852449792,-1116.96968480629,248.9449459200572
23.01204252243042,-171.50839893324343,-1116.9665103485409,248.97800795199885
23.030821084976196,-171.5083991703074,-1116.9630477710155,249.0105030929421
23.04956364631653,-171.50839922456376,-1116.959919989019,249.04220857028002
23.068405628204346,-171.50839912430072,-1116.9578774019349,249.07287479429752
23.087244749069214,-171.5083989241762,-1116.9578149991332,249.10222269329512
23.105994939804077,-171.50839868926863,-1116.9607913718435,249.12994076994707
23.124727964401245,-171.5083984792931,-1116.9629581819906,249.15568187120775
23.14348077774048,-171.50839833602538,-1116.9644090856114,249.17905967224144
23.162195205688477,-171.50839827652547,-1116.965245516494,249.1996448859154
23.180928468704224,-171.50839829370545,-1116.965575244479,249.21696122401548
23.199663162231445,-171.50839836394047,-1116.9655104688875,249.23048115528144
23.21837878227234,-171.50839845850476,-1116.9651653689302,249.2396212821448
23.237163066864014,-171.50839855131713,-1116.9646530226373,249.2437373039152
23.255924940109253,-171.5083986234409,-1116.9640815943587,249.2421185325062
23.275041818618774,-171.50839866487405,-1116.963549678078,249.13253398133637
23.293813467025757,-171.50839867423244,-1116.9631406695303,249.14503985208833
23.31254267692566,-171.50839865696506,-1116.9629160242628,249.15617531209426
23.33127450942993,-171.50839862274228,-1116.962907241146,249.1658867933711
23.35006809234619,-171.5083985826208,-1116.9631063912877,249.17413200824382
23.368784427642822,-171.50839854650883,-1116.963454990578,249.18088248917357
23.38749885559082,-171.508398521331,-1116.9638309900076,249.18612647556546
23.4062602519989,-171.50839851013512,-1116.9640336312186,249.18987218927336
23.42500591278076,-171.5083985121913,-1116.964105327834,249.1921515438111
23.44375205039978,-171.50839852393568,-1116.9640850773153,249.19302433524905
23.462491512298584,-171.5083985404297,-1116.9640077147035,249.19258296520462
23.48122215270996,-171.508398556878,-1116.9639032127184,249.1909577479506
23.500277519226074,-171.5083985697405,-1116.9637960623072,249.18832285412853
23.519120931625366,-171.50839857715619,-1116.963704775199,249.18490295892744
23.5378577709198,-171.5083985788788,-1116.963641558703,249.1809806692616
23.55663776397705,-171.50839857590796,-1116.9636122229927,249.17690481171198
23.57540464401245,-171.50839856997692,-1116.9636163926536,249.17986286707037
23.594205141067505,-171.50839856302656,-1116.9636481075286,249.18218440140248
23.612911224365234,-170.74117198589553,-1116.9636969130795,249.1839183406897
23.63162326812744,-170.69002354343908,-1116.9637495578752,249.18512044384428
23.65042495727539,-170.63546520749367,-1116.9637924356475,249.18585300621763
23.669153690338135,-170.57726965155928,-1116.9638149319856,249.18618437402057
23.687883853912354,-170.5151943935745,-1116.9638138614507,249.18618823391756
23.70666766166687,-170.4489807858038,-1116.963799210133,249.18594263689386
23.725421905517578,-170.37835293737797,-1116.963778802286,249.18552870976603
23.744147777557373,-170.3030165649408,-1116.9637583839506,249.1850290014005
23.76290011405945,-170.22265776657486,-1116.9637417619008,249.18452540381352
23.781627893447876,-170.13694171388798,-1116.9637309985126,249.18409658087106
23.80034041404724,-170.04551125683113,-1116.9637266609268,249.18381482932054
23.819153308868408,-169.94798543547617,-1116.963728119975,249.18374228734675
23.837892293930054,-169.84395789258267,-1116.9637338907264,249.18392639521912
23.85671043395996,-169.73299518036097,-1116.963742001909,249.18439450078625
23.875479459762573,-169.61463495438656,-1116.9637503758593,249.18469660970064
23.89420223236084,-170.2556106180123,-1116.963757193748,249.18486409025388
23.91293692588806,-170.22323986015346,-1116.963761212459,249.1849271402248
23.93166470527649,-170.1921209479344,-1116.9637619894313,249.18491425331686
23.950417041778564,-170.16256466396376,-1116.9637599596836,249.18485166979013
23.969159841537476,-170.13491766479075,-1116.9637562948635,249.18476282284144
23.987887859344482,-170.10956588287183,-1116.9637524570908,249.18466779543635
24.00661015510559,-170.08693822267637,-1116.9637493402215,249.18458280600586
24.025334358215332,-170.06751057502962,-1116.9637473760838,249.18451974575518
24.044365406036377,-170.0518101757022,-1116.963746642226,249.18448579537883
24.06321120262146,-170.04042033631066,-1116.963746967581,249.18448315481652
24.081947326660156,-170.0339855778055,-1116.9637480321855,249.1845089264129
24.100700616836548,-170.03321719920385,-1116.9637494569363,249.18455519955236
24.119419813156128,-170.0388993167857,-1116.9637508794003,249.1846093936994
24.138176441192627,-170.05189541173254,-1116.9637520119786,249.18465492693142
24.156917810440063,-170.0731554271573,-1116.9637526793165,249.18467228867442
24.175665140151978,-170.10372345867535,-1116.9637528328806,249.18467066727266
24.194411754608154,-170.09359764805288,-1116.963752542156,249.18465777240726
24.21321392059326,-170.08495483391283,-1116.9637519641356,249.18463981455272
24.232004642486572,-170.0778104263114,-1116.9637512957825,249.18462151863514
24.25073766708374,-170.07216014380126,-1116.9637507181892,249.18460617522481
24.269524335861206,-170.06797630906865,-1116.963750346411,249.18459573205038
24.28825306892395,-170.06520367081512,-1116.9637502056987,249.18459092782464
24.307000875473022,-170.06375470069102,-1116.9637502633973,249.18459146927924
24.32572603225708,-170.06350430906843,-1116.963750455885,249.18459625084748
24.34445834159851,-170.06428391795947,-1116.9637507101288,249.1846036145454
24.363243341445923,-170.06587482340277,-1116.963750959632,249.184611645194
24.38209891319275,-170.06800077310925,-1116.963751154795,249.18461849311274
24.4008629322052,-170.0703196780363,-1116.963751267986,249.18462271268342
24.41958999633789,-170.07241436878633,-1116.9637512938918,249.18462360061574
24.43830943107605,-170.07378229925658,-1116.963751246019,249.18462151219467
24.457030534744263,-170.07382409072986,-1116.963751150466,249.18461812709603
24.475783109664917,-170.07183079953347,-1116.9637510383047,249.18461462441758
24.494510173797607,-170.07037967629884,-1116.9637509380482,249.18461174788496
24.513264894485474,-170.06940799912456,-1116.9637508696426,249.18460987677375
24.531983613967896,-170.06884783731212,-1116.9637508412331,249.18460910064965
24.55070161819458,-170.06862701687953,-1116.9637508494359,249.18460929567797
24.569414377212524,-170.06867039740024,-1116.9637508829712,249.18461019991983
24.588186264038086,-170.0689015125059,-1116.9637509281226,249.18461148472616
24.60700750350952,-170.06924463329358,-1116.9637509724375,249.1846128190893
24.625763416290283,-170.06962732157527,-1116.9637510068744,249.18461392363872
24.64449381828308,-170.06998354848298,-1116.9637510266575,249.1846146109116
24.66326403617859,-170.07025746348833,-1116.9637510311256,249.18461480862612
24.68208384513855,-170.0704079095136,-1116.963751022881,249.1846145629937
24.70086669921875,-170.07041379161208,-1116.9637510065409,249.18461401968105
24.71959662437439,-170.07028041980047,-1116.963750987384,249.18461338095207
24.738323211669922,-170.07004696117005,-1116.9637509701417,249.18461283886924
24.757057905197144,-170.06979515253275,-1116.96375095812,249.18461248632082
24.77578115463257,-170.0696594427327,-1116.9637509527745,249.18461234378103
24.794519424438477,-170.06961142716162,-1116.9637509537563,249.18461238350747
24.813220977783203,-170.06962498903073,-1116.9637509593638,249.184612550623
24.831937789916992,-170.06967679914533,-1116.9637509672393,249.18461278062122
24.850685834884644,-170.0697467846297,-1116.963750975093,249.18461301295073
24.86941695213318,-170.06981854377835,-1116.9637509812344,249.18461320048613
24.8881516456604,-170.0698796791965,-1116.963750984775,249.18461331487012
24.906872034072876,-170.06992201559004,-1116.9637509855975,249.18461334792218
24.925621032714844,-170.06994166185768,-1116.963750984179,249.18461330954108
24.944332361221313,-170.069938869416,-1116.963750981347,249.18461322278304
24.963099718093872,-170.0699176298112,-1116.9637509780284,249.18461311706017
24.981849431991577,-170.0698849444977,-1116.9637509750385,249.18461302066459
25.0006160736084,-170.5985240250569,-1116.9637509729384,249.1846129540635
25.019352197647095,-170.63374026540728,-1116.9637509719753,249.18461292560426
25.038086891174316,-170.67131981902313,-1116.9637509720972,249.1846129313866
25.056809186935425,-170.7114214634558,-1116.9637509730294,249.18461296105767
25.075621128082275,-170.7542055981707,-1116.9637509743798,249.18461300220943
25.094377279281616,-170.7998452095713,-1116.9637509757545,249.18461304345627
25.11312484741211,-170.84852655760733,-1116.9637509768472,249.18461307631185
25.131842613220215,-170.90044987483813,-1116.9637509774877,249.17230555760372
25.150529623031616,-170.95583008085202,-1116.9637509776474,249.17148506058058
25.16924262046814,-171.01489751665696,-1116.963750977408,249.17060985125354
25.18796730041504,-171.07789870582099,-1116.963750976917,249.16967628701244
25.20676040649414,-171.14509715183638,-1116.9637509763384,249.1686804829518
25.225510597229004,-171.21677418450162,-1116.9637509758154,249.1676182945125
25.244228839874268,-171.29322987217398,-1116.9637509754466,249.16648529929444
25.262991905212402,-171.37478402166482,-1116.9637509752747,249.1652767781101
25.282015800476074,-170.93310295644247,-1116.9637509752904,249.16398769527314
25.30093502998352,-170.95540821853484,-1116.963750975447,249.16261267802045
25.319689750671387,-170.97685274874337,-1116.9637509756787,249.1611459948482
25.338420867919922,-170.99722161072472,-1116.9637509759173,249.1595815324123
25.357128858566284,-171.01627495387598,-1116.9637509761098,249.1579127705026
25.375841856002808,-171.03374624425632,-1116.9637509762256,249.15613275505547
25.394540786743164,-171.04933964656868,-1116.963750976257,249.1542340691621
25.41330122947693,-171.0627271858327,-1116.9637509762176,249.16451634043958
25.432023286819458,-171.07354567323233,-1116.963750976133,249.16399705929527
25.450731992721558,-171.08139337939107,-1116.9637509760319,249.16349785920957
25.46976327896118,-171.08582643690664,-1116.96375097594,249.16302372640664
25.488518476486206,-171.08635495231238,-1116.963750975875,249.16258022236624
25.50728154182434,-171.08243880567747,-1116.963750975844,249.16217353832724
25.526025772094727,-171.07348311375583,-1116.9637509758459,249.16181055458156
25.54473352432251,-171.0588333298613,-1116.9637509758725,249.16149890493404
25.563469886779785,-171.03776995040775,-1116.9637509759123,249.1612470467223
25.58218741416931,-171.04474775000546,-1116.9637509759539,249.16106433681892
25.600931406021118,-171.05070371877017,-1116.9637509759875,249.16096111407214
25.61966109275818,-171.05562711677197,-1116.963750976008,249.16094878868708
25.63837242126465,-171.05952081717513,-1116.9637509760141,249.16103993910536
25.657084941864014,-171.06240387472837,-1116.9637509760078,249.16124841701222
25.675825595855713,-171.06431438342648,-1116.9637509759934,249.16158946114268
25.694545030593872,-171.06531269921697,-1116.9637509759757,249.16207982060806
25.713242530822754,-171.06548506677595,-1116.9637509759598,249.16191738595262
25.731971263885498,-171.0649476930122,-1116.9637509759482,249.16177874106313
25.750742435455322,-171.06385131392025,-1116.9637509759425,249.1616641331867
25.76950764656067,-171.06238630572116,-1116.9637509759427,249.16157349363868
25.788212537765503,-171.0607883959484,-1116.9637509759475,249.1615063783902
25.806949138641357,-171.05934503529983,-1116.9637509759543,249.16146190106105
25.825713872909546,-171.05840249673608,-1116.9637509759616,249.16143865749302
25.844428062438965,-171.05837377452772,-1116.9637509759673,249.16143464099693
25.86316156387329,-171.0597473628024,-1116.963750975971,249.1614471472819
25.88187861442566,-171.06074733698884,-1116.963750975972,249.16147266797944
25.90058445930481,-171.06141691153678,-1116.963750975971,249.16150677157327
25.919289588928223,-171.06180289785442,-1116.9637509759684,249.16154397043235
25.938037157058716,-171.0619550365664,-1116.9637509759655,249.1615775725208
25.956798315048218,-171.0619251140223,-1116.9637509759627,249.1615995162214
25.97553515434265,-171.06176582939534,-1116.9637509759605,249.16160018655998
25.994256019592285,-171.06152937140723,-1116.9637509759596,249.16156821095677
26.01297163963318,-171.06126565838267,-1116.9637509759596,249.1615449326237
26.031740188598633,-168.7236024788485,-1116.9637509759602,249.16152934539443
26.050456285476685,-168.56758588984368,-1116.9637509759616,249.16152035954158
26.069165468215942,-168.40126586211852,-1116.963750975963,249.16151681726845
26.087871074676514,-168.2239643598632,-1116.9637509759636,249.16151751319367
26.106599807739258,-168.03493898150074,-1116.9637509759646,249.1615212206692
26.125385999679565,-167.8333747471517,-1116.9637509759646,249.16152672488093
26.144115209579468,-167.6183748119933,-1116.9637509759643,249.1615328638065
26.162854433059692,-167.3889499752727,-1116.963750975964,249.1615385782415
26.181583642959595,-167.14416348449168,-1116.9637509759636,249.16154297225896
26.200308322906494,-166.883013256022,-1116.9637509759632,249.161545385638
26.219048738479614,-166.60442727989985,-1116.9637509759627,249.16154547998502
26.237780332565308,-166.30725876278876,-1116.9637509759627,249.16154334048264
26.25649070739746,-165.99028100603985,-1116.9637509759627,249.16153959543337
26.27527356147766,-165.6521820178161,-1116.963750975963,249.16153555602494
26.294026136398315,-165.29155886091002,-1116.9637509759632,249.1615333790295
26.31276297569275,-167.24432945163736,-1116.9637509759632,249.16153260878988
26.331517934799194,-167.14571124982328,-1116.9637509759634,249.1615328263496
26.350228309631348,-167.05091960715527,-1116.9637509759636,249.16153365747013
26.368972063064575,-166.96089652349107,-1116.9637509759636,249.16153478015025
26.38768768310547,-166.87669200106626,-1116.9637509759636,249.16153593128072
26.406424522399902,-166.79947553570398,-1116.9637509759634,247.81743451656942
26.42517399787903,-166.73054892160744,-1116.9637509759634,247.72782836934866
26.443991661071777,-166.67136052891505,-1116.9637509759632,247.63224806971812
26.462719440460205,-166.6235212324912,-1116.9637509759632,247.5302953691499
26.481447219848633,-166.58881174902453,-1116.9637509759632,247.42154552894263
26.500189304351807,-166.56919831522467,-1116.9637509759632,247.30554553849626
26.518959999084473,-164.86223649656466,-1116.9637509759632,247.18181220906365
26.53769612312317,-164.50841924571208,-1116.9637509759632,247.04983013363574
26.556448698043823,-164.40962846169023,-1116.9637509759632,246.9090495028492
26.575212240219116,-164.32679155794852,-1116.9637509759632,246.75888376597084
26.59395408630371,-164.2624737377511,-1118.4328342442323,246.59870712510025
26.612655639648438,-164.0636833568253,-1118.5307731287837,246.42785209285427
26.63140559196472,-163.85821483062543,-1118.6352412723052,246.24560671062125
26.6501407623291,-163.64536784552348,-1118.7466739587278,246.05121158083136
26.668928384780884,-163.42433260032567,-1118.865535490912,245.84385670087676
26.68764352798462,-163.19417530694298,-1118.992321125242,246.9667804809352
26.70635962486267,-162.9538219583589,-1119.1275591351937,246.91007021189293
26.725067138671875,-162.70204016080896,-1119.2718130124756,246.8555530013959
26.743810892105103,-162.4374188029352,-1119.4256838149097,246.8037733301744
26.76253080368042,-162.15834530763146,-1119.5898126708396,246.75533852757604
26.78126883506775,-161.86298087820526,-1119.7648834504982,246.71092472748492
26.80000591278076,-163.2538462700856,-1119.9516256154675,246.6712833400842
26.818737983703613,-163.40410268809134,-1120.1508172581011,246.63724808215224
26.837514877319336,-163.33048158424995,-1120.3632883435769,246.60974261205334
26.856250762939453,-163.25853845908725,-1120.5899241680845,246.58978881933356
26.874999523162842,-163.18732158582984,-1119.3625857792902,246.57851582289106
26.89372730255127,-163.11564477570178,-1119.4245692149605,246.57716973607714
26.912436962127686,-163.05244220362687,-1119.4841556207057,246.58712424562535
26.931200981140137,-162.99872402849365,-1119.540749910599,246.6098920812923
26.949939250946045,-162.95561444069165,-1119.5936883073905,246.64713744798968
26.96864604949951,-162.9243665633827,-1119.642231828489,246.7006894977972
26.98735284805298,-162.90637931381204,-1119.6855592087054,246.68295009892137
27.00613236427307,-162.90321647084224,-1119.7227592136062,246.6678087580566
27.02492070198059,-162.91662822484446,-1119.7528222936814,246.65529247516733
27.043681621551514,-162.9485755196384,-1119.7746315255997,246.6453937515002
27.06239604949951,-163.00125753377222,-1119.7869527825835,246.63806409976178
27.081103086471558,-163.07714264414332,-1119.7884240713895,246.63320672458025
27.09982466697693,-163.06536240241385,-1119.777543968451,246.63066828354664
27.11854863166809,-163.04277971670203,-1119.7526590824743,246.63022963030625
27.13725972175598,-163.02359959219885,-1119.7119504650675,246.6315954315231
27.1559898853302,-163.00793700107295,-1119.6534188848664,246.6343825390024
27.174707412719727,-162.99597802875584,-1119.6728077585713,246.63810698674314
27.19342541694641,-162.98800024562607,-1119.689356994812,246.64216947012085
27.21214461326599,-162.98370411509268,-1119.7030370864193,246.6458391517539
27.230859994888306,-162.98270278753265,-1119.7138562314738,246.64823562311804
27.249578714370728,-162.98450867732203,-1119.7218674264125,246.64830883479326
27.2683207988739,-162.98851815158466,-1119.7271764662742,246.64481679059298
27.287368535995483,-162.99399407410283,-1119.7299509501122,246.64227457003776
27.306108474731445,-163.0000459143202,-1119.7304303992128,246.64057229083653
27.324816942214966,-163.00560709361858,-1119.7289376062479,246.63959094521448
27.343579530715942,-163.0094091985506,-1119.725891344958,243.39656469511448
27.36233925819397,-163.00995264286914,-1119.7218205824495,243.18046473480464
27.381058931350708,-163.00547330945085,-1119.7173803498538,242.95028193548626
27.399799585342407,-163.00148070325332,-1119.7133694419472,242.70492284561558
27.418518781661987,-162.99872743569009,-1119.7107501325784,242.44323572663623
27.437496185302734,-162.99706929192286,-1119.7106701104126,242.1640117463104
27.456284999847412,-162.99634477797952,-1119.7144868587823,241.8659870267976
27.475074768066406,-162.99636922792777,-1119.7172654654632,241.54784569613457
27.493784427642822,-162.9969271600812,-1119.7191260301731,241.20822411120213
27.512492179870605,-162.99780869641378,-1119.7201986264233,240.84571644183202
27.531241178512573,-162.99881575700584,-1119.7206214527534,240.45888182974628
27.55000877380371,-162.9997695623181,-1119.7205383878427,240.04625336274313
27.568758487701416,-163.000519656367,-1119.7200958492806,239.6063491342198
27.587472677230835,-163.00095469518462,-1119.7194388425585,239.13728743849862
27.606192111968994,-163.0010152805756,-1119.7187060721149,238.63706844834277
27.624919176101685,-163.000709159706,-1119.7180239698394,241.34620634489895
27.643633127212524,-163.0001291571164,-1119.7174994781649,241.20951578821789
27.662428379058838,-162.99947425806621,-1119.7172114045459,241.07811919177882
27.681174516677856,-162.9990743213072,-1119.7172001415254,240.95330834219834
27.69989800453186,-162.99891389584414,-1119.7174555214974,240.8365340419705
27.718610048294067,-162.99892632652106,-1119.7179025474252,240.72942059632612
27.737338066101074,-162.9990501288276,-1119.7183847098927,240.63378118632716
27.756059885025024,-162.99923048555084,-1119.7186445666334,240.5516341302958
27.77479362487793,-162.99942123605905,-1119.7187365067114,240.48522002590659
27.79349637031555,-162.9995875077909,-1119.7187105384808,240.43701975355356
27.812206029891968,-162.99970609521603,-1119.7186113326177,240.4097733076683
27.83096694946289,-162.9997654510967,-1119.7184773246088,240.40649940619645
27.84969186782837,-162.9997651770153,-1119.7183399203932,240.43051580909332
27.86846923828125,-162.99971487839187,-1119.7182228584672,240.4854602540849
27.88723373413086,-162.999632223939,-1119.7181417928612,240.57533844179065
27.905945539474487,-162.99954002016324,-1119.7181041742442,240.70455644135384
27.924659252166748,-162.99946207752703,-1119.7181095212045,240.66177978111747
27.94345188140869,-162.99941760555438,-1119.7181501907405,240.6252640473108
27.96219539642334,-162.99941382872026,-1119.7182127764868,240.59507370434625
27.98093056678772,-162.9994364625478,-1119.7182802854843,240.57119139515615
27.999679565429688,-162.99947130032803,-1119.71833526975,240.5535018853685
28.018397331237793,-162.99950763191518,-1119.718364117905,240.54177397130465
28.037134408950806,-162.99953813212102,-1119.7183627451057,240.5356401569698
28.05584979057312,-162.99955864189235,-1119.718343957004,240.53457389208143
28.074610948562622,-162.9995678022812,-1119.7183177870236,240.53786414982642
28.09333372116089,-162.99956648858057,-1119.7182916035931,240.54458710957795
28.11204171180725,-162.99955718147154,-1119.718270288325,240.55357469637192
28.13074779510498,-162.99954329682987,-1119.7182564859058,240.56337971571696
28.14949607849121,-162.99952850481756,-1119.7182509236068,240.57223730949184
28.168216943740845,-162.99951607991258,-1119.718252794616,240.57802244651896
28.18697237968445,-162.99950833697753,-1119.7182601947327,240.57820138016754
28.205706119537354,-162.99950622476516,-1119.7182705960988,240.5697777094218
28.2244291305542,-162.99950916791434,-1119.7182813344252,240.5636442379754
28.24317479133606,-162.99951527207168,-1119.7182900773375,240.5595362506864
28.261897087097168,-162.99952203496176,-1119.7182952307273,240.55716708710906
28.280616283416748,-162.99952773978936,-1119.718296227077,240.55623213323926
28.299352884292603,-162.99953150242013,-1119.718293624232,240.55641414976398
28.318087816238403,-162.99953309378714,-1119.718288924654,240.55739016166126
28.33680295944214,-162.99953275789818,-1119.7182840032904,240.558840161974
28.35555672645569,-162.99953103229856,-1119.718280006376,240.56045791330016
28.374292612075806,-162.99952858096637,-1119.7182774876665,240.5619641641984
28.393038272857666,-162.9995260537921,-1119.7182765466048,240.5631226345064
28.41178321838379,-162.99952397861347,-1119.7182769638234,240.5637591637154
28.430499792099,-162.99952269073236,-1119.718278329018,240.56378446024866
28.449231147766113,-162.99952230312667,-1119.7182801560452,240.5632209369658
28.46796488761902,-162.9995227180076,-1119.7182819801408,240.56223416966225
28.486760139465332,-162.999523676743,-1119.718283432501,240.56116968896188
28.505507946014404,-162.99952484020818,-1119.7182842882612,240.5605958209312
28.524230003356934,-162.9995258850278,-1119.7182844851836,240.56039259312828
28.542977333068848,-162.9995265925582,-1119.7182841123733,240.5604496826244
28.561681747436523,-162.99952689639792,-1119.7182833711497,240.56066852232544
28.580402135849,-162.99952684017182,-1119.7182825140878,240.56096428159785
28.599206924438477,-162.99952652935528,-1119.7182817734117,240.5612676237201
28.617921352386475,-162.9995260917265,-1119.7182812966623,240.5615261211907
28.63665223121643,-162.999525647315,-1119.7182811162204,240.5617051851385
28.655400037765503,-162.9995252883161,-1119.71828119021,240.5617883365944
28.674094200134277,-162.9995250688061,-1119.7182814370465,240.5617766147541
28.692803621292114,-162.99952500314038,-1119.7182817630758,240.56168688010396
28.711610078811646,-162.9995250714422,-1119.7182820830255,240.5615487278632
28.730331897735596,-162.99952523015617,-1119.7182823332928,240.5613996790375
28.749067544937134,-162.99952542529147,-1119.7182824784427,240.5612782618423
28.76779079437256,-162.99952560577705,-1119.718282511663,240.56121453465428
28.786495447158813,-162.99952573437935,-1119.7182824502738,240.5612175243671
28.80523657798767,-162.99952579399076,-1119.7182823277412,240.56125897126282
28.82395577430725,-162.99952578792164,-1119.718282183912,240.56131672980516
28.842646837234497,-162.99952573427922,-1119.7182820553478,240.5613745329505
